pc_time_s,teensy_time_us,ax,ay,az,gx,gy,gz,load_raw
0.042556047439575195,5000,0.000,0.000,0.000,0.000,0.000,0.000,-222878
0.11491203308105469,10000,2.461,-9.055,2.680,-0.006,0.004,-0.006,-222992
0.18700408935546875,15000,2.461,-9.016,2.680,0.002,-0.004,0.004,-222971
0.25916099548339844,20000,2.461,-9.055,2.641,0.002,0.002,-0.004,-222934
0.3307220935821533,25000,2.461,-9.020,2.715,0.002,0.004,-0.002,-223553
0.40375399589538574,30000,2.461,-9.016,2.680,-0.002,-0.006,0.002,-222797
0.4746870994567871,35000,2.461,-9.016,2.680,0.004,0.006,-0.002,-222809
0.5488829612731934,40000,2.461,-9.016,2.680,-0.002,0.004,0.002,-222947
0.6213181018829346,45000,2.461,-9.020,2.715,0.000,0.004,-0.004,-223113
0.6894679069519043,50000,2.461,-9.055,2.641,-0.006,0.000,0.004,-223085
0.7624490261077881,55000,2.461,-9.059,2.715,-0.002,-0.002,0.002,-222851
0.8358709812164307,60000,2.461,-9.059,2.715,-0.004,0.004,-0.002,-222614
0.9079530239105225,65000,2.461,-9.020,2.715,-0.002,0.000,-0.004,-223113
0.9794361591339111,70000,2.426,-9.016,2.641,0.004,0.006,0.006,-223381
1.0542290210723877,75000,2.426,-9.016,2.641,-0.006,0.000,0.000,-222940
1.1264348030090332,80000,2.461,-9.016,2.680,0.000,0.000,0.000,-223335
1.1983180046081543,85000,2.461,-9.016,2.680,0.000,0.000,0.000,-223191
1.2668540477752686,90000,2.461,-9.016,2.680,0.000,0.000,0.000,-222606
1.3439152240753174,95000,2.426,-9.016,2.680,0.000,0.000,0.000,-223295
1.4118359088897705,100000,2.461,-9.016,2.641,0.000,0.000,0.000,-223132
1.481266975402832,105000,2.461,-9.016,2.680,0.000,0.000,0.000,-223352
1.5543580055236816,110000,2.461,-9.016,2.680,0.000,0.000,0.000,-222859
1.6264898777008057,115000,2.461,-9.016,2.641,0.000,0.000,0.000,-223150
1.693676233291626,120000,2.426,-9.016,2.680,0.000,0.000,0.000,-222560
1.7668471336364746,125000,2.426,-9.016,2.680,0.000,0.000,0.000,-223467
1.837001085281372,130000,2.426,-9.016,2.641,0.000,0.000,0.000,-222768
1.9051711559295654,135000,2.461,-9.020,2.715,0.000,0.000,0.000,-222956
1.9754059314727783,140000,2.461,-9.016,2.641,0.000,0.000,0.000,-222722
2.0445919036865234,145000,2.461,-9.016,2.680,0.000,0.000,0.000,-223459
2.1157798767089844,150000,2.461,-9.055,2.641,0.000,0.000,0.000,-223340
2.1896069049835205,155000,2.461,-9.055,2.680,0.000,0.000,0.000,-222705
2.2602529525756836,160000,2.426,-9.016,2.680,0.000,0.000,0.000,-223319
2.332210063934326,165000,2.426,-9.016,2.680,0.000,0.000,0.000,-222808
2.4063141345977783,170000,2.461,-9.016,2.680,0.000,0.000,0.000,-222939
2.480802059173584,175000,2.461,-9.016,2.680,0.000,0.000,0.000,-223880
2.5466599464416504,180000,2.461,-9.020,2.715,0.000,0.000,0.000,-223005
2.616806983947754,185000,2.461,-9.055,2.680,0.000,0.000,0.000,-223503
2.6902401447296143,190000,2.461,-9.055,2.680,0.000,0.000,0.000,-223194
2.760139226913452,195000,2.426,-9.016,2.641,0.000,0.000,0.000,-223107
2.8312931060791016,200000,2.426,-9.020,2.715,0.000,0.000,0.000,-222162
2.902427911758423,205000,2.426,-9.016,2.641,0.000,0.000,0.000,-223204
2.971489191055298,210000,2.461,-9.055,2.680,0.000,0.000,0.000,-222785
3.03916597366333,215000,2.426,-9.055,2.641,0.000,0.000,0.000,-222508
3.1140360832214355,220000,2.461,-9.059,2.754,0.000,0.000,0.000,-223031
3.1858901977539062,225000,2.461,-9.055,2.680,0.000,0.000,0.000,-222817
3.253366231918335,230000,2.461,-9.055,2.641,0.000,0.000,0.000,-222631
3.3236680030822754,235000,2.461,-9.016,2.680,0.000,0.000,0.000,-223084
3.3960001468658447,240000,2.461,-9.016,2.641,0.000,0.000,0.000,-223099
3.466883897781372,245000,2.426,-9.016,2.680,0.000,0.000,0.000,-222945
3.5349771976470947,250000,2.426,-9.016,2.641,0.000,0.000,0.000,-223161
3.6092960834503174,255000,2.461,-9.016,2.680,0.000,0.000,0.000,-222817
3.6803321838378906,260000,2.461,-9.055,2.680,0.000,0.000,0.000,-223224
3.750049114227295,265000,2.461,-9.016,2.680,0.000,0.000,0.000,-223003
3.821197986602783,270000,2.461,-9.055,2.680,0.000,0.000,0.000,-222997
3.8917410373687744,275000,2.461,-9.020,2.715,0.000,0.000,0.000,-223425
3.9626410007476807,280000,2.426,-9.016,2.641,0.000,0.000,0.000,-223077
4.035149812698364,285000,2.426,-9.016,2.680,0.000,0.000,0.000,-223742
4.101215124130249,290000,2.426,-9.055,2.680,0.000,0.000,0.000,-223206
4.171352863311768,295000,2.461,-9.016,2.680,0.000,0.000,0.000,-223168
4.243582010269165,300000,2.461,-9.055,2.641,0.000,0.000,0.000,-223148
4.31355094909668,305000,2.461,-9.016,2.680,0.000,0.000,0.000,-223402
4.382939100265503,310000,2.461,-9.016,2.680,0.000,0.000,0.000,-223055
4.449095964431763,315000,2.461,-9.055,2.641,0.000,0.000,0.000,-223327
4.522166013717651,320000,2.461,-9.020,2.715,0.000,0.000,0.000,-222481
4.592290163040161,325000,2.461,-9.055,2.680,0.000,0.000,0.000,-222518
4.662248134613037,330000,2.461,-9.059,2.715,0.000,0.000,0.000,-223471
4.731746196746826,335000,2.426,-9.016,2.680,0.000,0.000,0.000,-223337
4.803095817565918,340000,2.426,-9.016,2.680,0.000,0.000,0.000,-222893
4.874032974243164,345000,2.426,-9.020,2.715,0.000,0.000,0.000,-222440
4.945310115814209,350000,2.461,-9.055,2.680,0.000,0.000,0.000,-223405
5.013444900512695,355000,2.461,-9.055,2.680,0.000,0.000,0.000,-222753
5.082453012466431,360000,2.461,-9.016,2.680,0.000,0.000,0.000,-222690
5.154482126235962,365000,2.461,-9.055,2.680,0.000,0.000,0.000,-223168
5.225811958312988,370000,2.426,-9.016,2.680,0.000,0.000,0.000,-223169
5.293967008590698,375000,2.461,-9.020,2.715,0.000,0.000,0.000,-223046
5.36710000038147,380000,2.461,-9.016,2.680,0.000,0.000,0.000,-222888
5.43727707862854,385000,2.461,-9.059,2.715,0.000,0.000,0.000,-223214
5.506500959396362,390000,2.461,-9.055,2.641,0.000,0.000,0.000,-222617
5.574599981307983,395000,2.426,-9.059,2.715,0.000,0.000,0.000,-223223
5.648860931396484,400000,2.461,-9.016,2.641,0.000,0.000,0.000,-223216
5.718874931335449,405000,2.461,-9.016,2.680,0.000,0.000,0.000,-222738
5.789273977279663,410000,2.461,-9.016,2.680,0.000,0.000,0.000,-223070
5.856282949447632,415000,2.461,-9.055,2.680,0.000,0.000,0.000,-223109
5.928400993347168,420000,2.461,-9.020,2.715,0.000,0.000,0.000,-223238
5.997519016265869,425000,2.461,-9.055,2.680,0.000,0.000,0.000,-223188
6.068380117416382,430000,2.426,-9.016,2.641,0.000,0.000,0.000,-222981
6.140742063522339,435000,2.461,-9.055,2.680,0.000,0.000,0.000,-223402
6.209812164306641,440000,2.461,-9.016,2.680,0.000,0.000,0.000,-222188
6.278138875961304,445000,2.461,-9.055,2.680,0.000,0.000,0.000,-222623
6.3474791049957275,450000,2.426,-9.055,2.680,0.000,0.000,0.000,-223064
6.419583082199097,455000,2.426,-9.059,2.602,0.000,0.000,0.000,-222969
6.489431858062744,460000,2.461,-9.059,2.715,0.000,0.000,0.000,-222886
6.55953311920166,465000,2.461,-9.020,2.602,0.000,0.000,0.000,-222978
6.633633136749268,470000,2.461,-9.016,2.680,0.000,0.000,0.000,-222437
6.702842950820923,475000,2.426,-9.016,2.680,0.000,0.000,0.000,-223146
6.771014928817749,480000,2.461,-9.016,2.680,0.000,0.000,0.000,-223042
6.843383073806763,485000,2.500,-9.016,2.680,0.000,0.000,0.000,-222715
6.911571979522705,490000,2.461,-9.016,2.680,0.000,0.000,0.000,-223298
6.98167610168457,495000,2.461,-9.059,2.715,0.000,0.000,0.000,-223342
7.053789138793945,500000,2.461,-9.055,2.680,0.000,0.000,0.000,-222859
7.1263041496276855,505000,2.461,-9.055,2.680,0.000,0.000,0.000,-223247
7.200103998184204,510000,2.461,-9.020,2.715,0.000,0.000,0.000,-223323
7.2736289501190186,515000,2.426,-9.059,2.715,0.000,0.000,0.000,-222436
7.340618133544922,520000,2.461,-9.020,2.563,0.000,0.000,0.000,-222756
7.412589073181152,525000,2.500,-9.055,2.680,0.000,0.000,0.000,-223238
7.482732057571411,530000,2.426,-9.059,2.602,0.000,0.000,0.000,-223229
7.553079128265381,535000,2.426,-9.059,2.715,0.000,0.000,0.000,-223216
7.624284982681274,540000,2.461,-9.055,2.680,0.000,0.000,0.000,-222760
7.697468996047974,545000,2.461,-9.016,2.641,0.000,0.000,0.000,-222889
7.7696452140808105,550000,2.387,-9.020,2.680,0.000,0.000,0.000,-223361
7.83754301071167,555000,2.461,-9.016,2.680,0.000,0.000,0.000,-222871
7.909974098205566,560000,2.426,-9.020,2.715,0.000,0.000,0.000,-223129
7.981581211090088,565000,2.461,-9.059,2.715,0.000,0.000,0.000,-222301
8.047959804534912,570000,2.461,-9.055,2.641,0.000,0.000,0.000,-223170
8.115493059158325,575000,2.461,-8.980,2.680,0.000,0.000,0.000,-222986
8.185374021530151,580000,2.461,-9.020,2.715,0.000,0.000,0.000,-223112
8.255415201187134,585000,2.461,-9.055,2.680,0.000,0.000,0.000,-222570
8.323590993881226,590000,2.461,-9.016,2.680,0.000,0.000,0.000,-223321
8.393731832504272,595000,2.461,-9.020,2.715,0.000,0.000,0.000,-222408
8.465928077697754,600000,2.426,-9.020,2.715,0.000,0.000,0.000,-224110
8.538997173309326,605000,2.461,-9.016,2.680,0.000,0.000,0.000,-222930
8.606476068496704,610000,2.426,-9.020,2.715,0.000,0.000,0.000,-222336
8.679481029510498,615000,2.426,-9.055,2.680,0.000,0.000,0.000,-222722
8.748463869094849,620000,2.461,-9.016,2.641,0.000,0.000,0.000,-223046
8.815646171569824,625000,2.426,-9.055,2.680,0.000,0.000,0.000,-223064
8.889859914779663,630000,2.461,-9.016,2.680,0.000,0.000,0.000,-222633
8.961404085159302,635000,2.461,-9.020,2.715,0.000,0.000,0.000,-222638
9.03071117401123,640000,2.461,-9.016,2.641,0.000,0.000,0.000,-223254
9.100702047348022,645000,2.461,-9.020,2.715,0.000,0.000,0.000,-222467
9.171497106552124,650000,2.461,-9.055,2.641,0.000,0.000,0.000,-222761
9.241050958633423,655000,2.461,-9.020,2.715,0.000,0.000,0.000,-222997
9.313302040100098,660000,2.461,-9.055,2.680,0.000,0.000,0.000,-222885
9.38218092918396,665000,2.461,-9.055,2.680,0.000,0.000,0.000,-222920
9.454458951950073,670000,2.426,-9.016,2.641,0.000,0.000,0.000,-222955
9.526673078536987,675000,2.461,-9.016,2.680,0.000,0.000,0.000,-223302
9.598771095275879,680000,2.461,-9.016,2.641,-0.004,-0.002,-0.002,-223474
9.669792175292969,685000,2.461,-9.055,2.680,0.002,0.002,0.000,-223007
9.739076852798462,690000,2.461,-9.020,2.715,0.002,0.000,0.004,-222654
9.81139588356018,695000,2.461,-9.020,2.715,-0.004,0.006,0.000,-223054
9.882455110549927,700000,2.461,-9.016,2.680,0.002,0.010,-0.004,-222939
9.95541000366211,705000,2.426,-9.055,2.680,0.002,0.000,-0.004,-222130
10.027616024017334,710000,2.461,-9.020,2.715,0.004,0.000,0.002,-223371
10.09685206413269,715000,2.426,-9.016,2.680,0.000,0.000,0.000,-223034
10.164717197418213,720000,2.426,-9.016,2.680,-0.002,0.002,-0.004,-223483
10.232923984527588,725000,2.461,-9.016,2.641,-0.008,0.000,-0.002,-223108
10.305039882659912,730000,2.426,-9.020,2.715,0.004,0.002,-0.004,-223130
10.377404928207397,735000,2.461,-9.055,2.680,-0.004,0.000,0.000,-222859
10.451789140701294,740000,2.426,-9.059,2.715,-0.002,0.002,0.000,-223374
10.526094913482666,745000,2.426,-9.016,2.641,-0.002,0.000,0.004,-222939
10.600052118301392,750000,2.461,-9.059,2.715,0.000,0.000,0.000,-222857
10.671977996826172,755000,2.426,-9.016,2.680,0.000,0.000,0.000,-222204
10.744441986083984,760000,2.426,-9.020,2.715,0.000,0.000,0.000,-222393
10.813683986663818,765000,2.426,-9.016,2.641,0.000,0.000,0.000,-222822
10.881531000137329,770000,2.426,-9.055,2.641,0.000,0.000,0.000,-223009
10.951823949813843,775000,2.461,-9.016,2.641,0.000,0.000,0.000,-222898
11.02111005783081,780000,2.426,-9.055,2.680,0.000,0.000,0.000,-222860
11.089176893234253,785000,2.461,-9.016,2.680,0.000,0.000,0.000,-222535
11.158084869384766,790000,2.426,-9.016,2.680,0.000,0.000,0.000,-222666
11.22845196723938,795000,2.461,-9.059,2.715,0.000,0.000,0.000,-222924
11.2986741065979,800000,2.461,-9.055,2.680,0.000,0.000,0.000,-223065
11.37178921699524,805000,2.461,-9.016,2.680,0.000,0.000,0.000,-222490
11.440829038619995,810000,2.461,-9.055,2.680,0.000,0.000,0.000,-222789
11.51234221458435,815000,2.461,-9.020,2.715,0.000,0.000,0.000,-222965
11.582309007644653,820000,2.461,-9.055,2.680,0.000,0.000,0.000,-223625
11.6532461643219,825000,2.426,-9.055,2.680,0.000,0.000,0.000,-223108
11.723659038543701,830000,2.426,-9.016,2.680,0.000,0.000,0.000,-223313
11.793784141540527,835000,2.461,-9.020,2.715,0.000,0.000,0.000,-223113
11.861914873123169,840000,2.426,-9.016,2.680,0.000,0.000,0.000,-222578
11.933138132095337,845000,2.461,-9.055,2.680,0.000,0.000,0.000,-223552
12.00234603881836,850000,2.461,-9.016,2.680,0.000,0.000,0.000,-222839
12.072510004043579,855000,2.461,-9.055,2.680,0.000,0.000,0.000,-222661
12.1446852684021,860000,2.461,-9.020,2.715,0.000,0.000,0.000,-222532
12.214754819869995,865000,2.461,-9.016,2.680,0.000,0.000,0.000,-222873
12.281898021697998,870000,2.461,-9.016,2.641,0.000,0.000,0.000,-222925
12.356132984161377,875000,2.461,-9.016,2.680,0.000,0.000,0.000,-222090
12.424039125442505,880000,2.461,-9.055,2.641,0.000,0.000,0.000,-223223
12.493377208709717,885000,2.461,-9.016,2.641,0.000,0.000,0.000,-222581
12.56368112564087,890000,2.461,-9.059,2.715,0.000,0.000,0.000,-222631
12.635865926742554,895000,2.461,-9.016,2.680,0.000,0.000,0.000,-222682
12.704869031906128,900000,2.426,-9.016,2.680,0.000,0.000,0.000,-222495
12.778059005737305,905000,2.426,-9.016,2.641,0.000,0.000,0.000,-222435
12.848489046096802,910000,2.461,-9.020,2.715,0.000,0.000,0.000,-223296
12.917361974716187,915000,2.461,-9.016,2.680,0.000,0.000,0.000,-222636
12.984602928161621,920000,2.426,-9.016,2.680,0.000,0.000,0.000,-222892
13.05671215057373,925000,2.426,-9.016,2.680,0.000,0.000,0.000,-222379
13.123896837234497,930000,2.461,-9.016,2.680,0.000,0.000,0.000,-222476
13.194746971130371,935000,2.461,-9.055,2.680,0.000,0.000,0.000,-222850
13.268199920654297,940000,2.461,-9.016,2.641,0.000,0.000,0.000,-222924
13.33831787109375,945000,2.426,-9.016,2.641,0.000,0.000,0.000,-222566
13.408733129501343,950000,2.426,-9.016,2.680,0.000,0.000,0.000,-222751
13.479682207107544,955000,2.426,-9.016,2.680,0.000,0.000,0.000,-222651
13.552801132202148,960000,2.461,-9.016,2.680,0.000,0.000,0.000,-223092
13.619931936264038,965000,2.461,-9.016,2.680,0.000,0.000,0.000,-223001
13.695122957229614,970000,2.426,-9.020,2.715,0.000,0.000,0.000,-223262
13.764914989471436,975000,2.461,-9.059,2.715,0.000,0.000,0.000,-223298
13.835075855255127,980000,2.461,-9.016,2.680,0.000,0.000,0.000,-223177
13.909600019454956,985000,2.461,-9.055,2.680,0.000,0.000,0.000,-222971
13.979894161224365,990000,2.461,-9.055,2.680,0.000,0.000,0.000,-222681
14.048999071121216,995000,2.461,-9.055,2.680,0.000,0.000,0.000,-223371
14.118108034133911,1000000,2.461,-9.055,2.680,0.000,0.000,0.000,-223114
14.189022064208984,1005000,2.461,-9.055,2.680,0.000,0.000,0.000,-223051
14.259395837783813,1010000,2.426,-9.016,2.680,0.000,0.000,0.000,-223033
14.328693151473999,1015000,2.461,-9.016,2.680,0.000,0.000,0.000,-222843
14.400542974472046,1020000,2.461,-9.055,2.680,0.000,0.000,0.000,-222751
14.470927000045776,1025000,2.426,-9.055,2.680,0.000,0.000,0.000,-222910
14.540081977844238,1030000,2.461,-9.020,2.715,0.000,0.000,0.000,-223086
14.611247062683105,1035000,2.461,-9.016,2.680,0.000,0.000,0.000,-222624
14.682152032852173,1040000,2.461,-9.016,2.680,0.000,0.000,0.000,-223013
14.753514051437378,1045000,2.461,-9.016,2.680,0.000,0.000,0.000,-222950
14.822032928466797,1050000,2.426,-9.059,2.715,0.000,0.000,0.000,-222952
14.89487600326538,1055000,2.461,-9.020,2.715,0.000,0.000,0.000,-222852
14.965034008026123,1060000,2.461,-9.020,2.715,0.000,0.000,0.000,-223361
15.03528094291687,1065000,2.426,-9.055,2.680,0.000,0.000,0.000,-223350
15.10843300819397,1070000,2.461,-9.016,2.680,0.000,0.000,0.000,-222943
15.178076982498169,1075000,2.461,-9.059,2.715,0.000,0.000,0.000,-222050
15.244532108306885,1080000,2.461,-9.016,2.680,0.000,0.000,0.000,-222567
15.315927982330322,1085000,2.426,-9.055,2.680,0.000,0.000,0.000,-223512
15.386936902999878,1090000,2.461,-9.055,2.680,0.000,0.000,0.000,-222525
15.457139015197754,1095000,2.426,-9.055,2.680,0.000,0.000,0.000,-222975
15.5263671875,1100000,2.461,-9.059,2.715,0.000,0.000,0.000,-222983
15.599470853805542,1105000,2.461,-9.020,2.715,0.000,0.000,0.000,-222687
15.66523289680481,1110000,2.461,-9.016,2.680,0.000,0.000,0.000,-223163
15.740421056747437,1115000,2.461,-9.016,2.641,0.000,0.000,0.000,-222804
15.812283992767334,1120000,2.461,-9.059,2.715,0.000,0.000,0.000,-222895
15.885172128677368,1125000,2.461,-9.059,2.715,0.000,0.000,0.000,-222516
15.957288980484009,1130000,2.461,-9.016,2.680,0.000,0.000,0.000,-223358
16.026477813720703,1135000,2.461,-9.059,2.715,0.000,0.000,0.000,-222847
16.097625970840454,1140000,2.461,-9.016,2.680,0.000,0.000,0.000,-222590
16.169480085372925,1145000,2.461,-9.016,2.641,0.000,0.000,0.000,-223324
16.23858904838562,1150000,2.426,-9.055,2.641,0.000,0.000,0.000,-223125
16.306153059005737,1155000,2.461,-9.055,2.641,0.000,0.000,0.000,-223091
16.377336978912354,1160000,2.461,-9.020,2.715,0.000,0.000,0.000,-222690
16.45046615600586,1165000,2.426,-9.055,2.680,0.000,0.000,0.000,-222840
16.51859998703003,1170000,2.461,-9.055,2.680,0.000,0.000,0.000,-223393
16.587724208831787,1175000,2.461,-9.016,2.680,0.000,0.000,0.000,-222914
16.65963912010193,1180000,2.500,-9.055,2.680,0.000,0.000,0.000,-222680
16.7308030128479,1185000,2.461,-9.016,2.680,0.000,0.000,0.000,-222310
16.80230212211609,1190000,2.461,-9.055,2.680,0.000,0.000,0.000,-223094
16.87044405937195,1195000,2.461,-9.016,2.680,0.000,0.000,0.000,-222773
16.93952226638794,1200000,2.461,-9.016,2.680,0.000,0.000,0.000,-222602
17.009764909744263,1205000,2.461,-9.016,2.680,0.000,0.000,0.000,-223056
17.08001208305359,1210000,2.426,-9.016,2.641,0.000,0.000,0.000,-222774
17.150124073028564,1215000,2.426,-9.016,2.680,0.000,0.000,0.000,-223275
17.22131586074829,1220000,2.461,-9.016,2.680,0.000,0.000,0.000,-222417
17.290299892425537,1225000,2.461,-9.059,2.715,0.000,0.000,0.000,-222709
17.35858416557312,1230000,2.461,-9.016,2.680,0.000,0.000,0.000,-223365
17.42860507965088,1235000,2.461,-9.059,2.754,0.000,0.000,0.000,-222715
17.497804164886475,1240000,2.461,-9.059,2.715,0.000,0.000,0.000,-223249
17.5660879611969,1245000,2.461,-9.016,2.680,0.000,0.000,0.000,-222154
17.63835906982422,1250000,2.426,-9.016,2.680,0.000,0.000,0.000,-223333
17.708322048187256,1255000,2.461,-9.016,2.680,0.000,0.000,0.000,-222943
17.78057098388672,1260000,2.461,-9.016,2.680,0.000,0.000,0.000,-222966
17.85184907913208,1265000,2.461,-9.016,2.680,0.000,0.000,0.000,-222705
17.918923139572144,1270000,2.461,-9.016,2.680,0.000,0.000,0.000,-223213
17.99099087715149,1275000,2.461,-9.055,2.641,0.000,0.000,0.000,-223088
18.06154704093933,1280000,2.426,-9.016,2.680,0.000,0.000,0.000,-222588
18.13154101371765,1285000,2.461,-9.055,2.680,0.000,0.000,0.000,-222562
18.203797101974487,1290000,2.461,-9.059,2.715,0.000,0.000,0.000,-223203
18.278884887695312,1295000,2.461,-9.059,2.715,0.000,0.000,0.000,-222667
18.35189199447632,1300000,2.461,-9.055,2.680,0.000,0.000,0.000,-223367
18.421923875808716,1305000,2.461,-9.016,2.641,0.000,0.000,0.000,-222804
18.4960458278656,1310000,2.461,-9.016,2.680,0.000,0.000,0.000,-222805
18.56717801094055,1315000,2.426,-9.016,2.680,0.000,0.000,0.000,-222654
18.636373043060303,1320000,2.461,-9.020,2.715,0.000,0.000,0.000,-223356
18.703492879867554,1325000,2.461,-9.055,2.680,0.000,0.000,0.000,-223051
18.778369188308716,1330000,2.426,-9.016,2.680,0.000,0.000,0.000,-223374
18.848572969436646,1335000,2.426,-9.020,2.715,0.000,0.000,0.000,-222789
18.918009042739868,1340000,2.426,-9.016,2.680,0.000,0.000,0.000,-223242
18.989192008972168,1345000,2.426,-9.059,2.715,0.000,0.000,0.000,-222801
19.061410903930664,1350000,2.461,-9.016,2.680,0.000,0.000,0.000,-222528
19.128440141677856,1355000,2.461,-9.020,2.715,0.000,0.000,0.000,-222246
19.19664692878723,1360000,2.461,-9.055,2.641,0.000,0.000,0.000,-222799
19.267791986465454,1365000,2.461,-9.016,2.680,0.000,0.000,0.000,-223185
19.339022874832153,1370000,2.461,-9.016,2.641,0.000,0.000,0.000,-222950
19.407164096832275,1375000,2.426,-9.059,2.715,0.000,0.000,0.000,-222862
19.480334997177124,1380000,2.426,-9.016,2.641,0.000,0.000,0.000,-222602
19.552408933639526,1385000,2.461,-9.016,2.680,0.000,0.000,0.000,-223349
19.619753122329712,1390000,2.426,-9.055,2.680,0.000,0.000,0.000,-222770
19.69274616241455,1395000,2.461,-9.016,2.680,0.000,0.000,0.000,-222871
19.760882139205933,1400000,2.461,-9.016,2.680,0.000,0.000,0.000,-222803
19.833096027374268,1405000,2.461,-9.016,2.680,0.000,0.000,0.000,-223083
19.900243997573853,1410000,2.461,-9.016,2.680,0.000,0.000,0.000,-222449
19.972442865371704,1415000,2.426,-9.016,2.641,0.000,0.000,0.000,-223258
20.040589809417725,1420000,2.426,-9.055,2.680,0.000,0.000,0.000,-222965
20.112789154052734,1425000,2.461,-9.055,2.680,0.000,0.000,0.000,-222547
20.1807062625885,1430000,2.461,-9.020,2.715,0.000,0.000,0.000,-222695
20.249122142791748,1435000,2.461,-9.016,2.680,0.000,0.000,0.000,-222749
20.318285942077637,1440000,2.461,-9.055,2.680,0.000,0.000,0.000,-222849
20.389121055603027,1445000,2.461,-9.016,2.680,0.000,0.000,0.000,-222920
20.461286067962646,1450000,2.461,-9.055,2.680,0.000,0.000,0.000,-222820
20.532679080963135,1455000,2.461,-9.059,2.715,0.000,0.000,0.000,-222624
20.599812984466553,1460000,2.461,-9.016,2.641,0.000,0.000,0.000,-222857
20.668785095214844,1465000,2.461,-9.020,2.715,0.000,0.000,0.000,-223268
20.740185022354126,1470000,2.461,-9.016,2.641,0.000,0.000,0.000,-223272
20.814471006393433,1475000,2.461,-9.016,2.680,0.000,0.000,0.000,-222582
20.885474920272827,1480000,2.461,-9.055,2.641,0.000,0.000,0.000,-223859
20.95570421218872,1485000,2.387,-9.016,2.754,0.000,0.000,0.000,-223230
21.026823043823242,1490000,2.426,-9.016,2.680,0.000,0.000,0.000,-223097
21.103245973587036,1495000,2.461,-9.059,2.715,0.000,0.000,0.000,-222835
21.170931100845337,1500000,2.461,-9.016,2.680,0.000,0.000,0.000,-223582
21.244004011154175,1505000,2.500,-9.055,2.680,0.000,0.000,0.000,-222712
21.317532062530518,1510000,2.461,-9.055,2.641,0.000,0.000,0.000,-223284
21.388355016708374,1515000,2.461,-9.020,2.715,0.000,0.000,0.000,-223084
21.46078610420227,1520000,2.461,-9.055,2.680,0.000,0.000,0.000,-223091
21.533056020736694,1525000,2.461,-9.059,2.715,0.000,0.000,0.000,-222274
21.60509490966797,1530000,2.426,-9.016,2.680,0.000,0.000,0.000,-223496
21.673681020736694,1535000,2.461,-9.055,2.680,0.000,0.000,0.000,-222909
21.74445605278015,1540000,2.461,-9.059,2.715,0.000,0.000,0.000,-222631
21.81066393852234,1545000,2.461,-9.016,2.680,0.000,0.000,0.000,-222892
21.883857011795044,1550000,2.500,-9.020,2.715,0.000,0.000,0.000,-222592
21.952006101608276,1555000,2.426,-9.020,2.715,0.000,0.000,0.000,-222588
22.023043870925903,1560000,2.461,-9.055,2.680,0.000,0.000,0.000,-223157
22.093234062194824,1565000,2.426,-9.059,2.715,0.000,0.000,0.000,-222451
22.16117525100708,1570000,2.461,-9.059,2.715,0.000,0.000,0.000,-223147
22.234548091888428,1575000,2.426,-9.016,2.641,0.000,0.000,0.000,-222487
22.301716089248657,1580000,2.426,-9.016,2.680,0.000,0.000,0.000,-223371
22.371978044509888,1585000,2.461,-9.016,2.680,0.000,0.000,0.000,-222826
22.442101001739502,1590000,2.500,-9.059,2.715,0.000,0.000,0.000,-223204
22.511259078979492,1595000,2.461,-9.016,2.680,0.000,0.000,0.000,-223205
22.58433485031128,1600000,2.461,-9.016,2.680,0.000,0.000,0.000,-223132
22.654425859451294,1605000,2.461,-9.020,2.715,0.000,0.000,0.000,-223368
22.726813077926636,1610000,2.461,-9.016,2.680,0.000,0.000,0.000,-223075
22.794883966445923,1615000,2.461,-9.020,2.715,0.000,0.000,0.000,-223171
22.864078998565674,1620000,2.461,-9.059,2.715,0.000,0.000,0.000,-221967
22.936152935028076,1625000,2.461,-9.016,2.680,0.000,0.000,0.000,-223018
23.005340099334717,1630000,2.461,-9.055,2.641,0.000,0.000,0.000,-223096
23.073601007461548,1635000,2.500,-9.016,2.680,0.000,0.000,0.000,-223510
23.144659996032715,1640000,2.426,-9.016,2.680,0.000,0.000,0.000,-223245
23.211788177490234,1645000,2.461,-9.020,2.715,0.000,0.000,0.000,-222395
23.281132221221924,1650000,2.461,-9.016,2.641,0.000,0.000,0.000,-222877
23.35379695892334,1655000,2.461,-9.059,2.715,0.000,0.000,0.000,-222929
23.423113107681274,1660000,2.461,-9.055,2.680,0.000,0.000,0.000,-223398
23.49030113220215,1665000,2.461,-9.016,2.680,0.000,0.000,0.000,-222704
23.562705039978027,1670000,2.461,-9.016,2.680,0.000,0.000,0.000,-223491
23.63601589202881,1675000,2.461,-9.055,2.680,0.000,0.000,0.000,-222909
23.70571208000183,1680000,2.461,-9.016,2.680,0.000,0.000,0.000,-223152
23.77478003501892,1685000,2.461,-9.055,2.641,0.000,0.000,0.000,-223373
23.846940994262695,1690000,2.426,-9.016,2.680,0.000,0.000,0.000,-223139
23.919430017471313,1695000,2.461,-9.055,2.680,0.000,0.000,0.000,-223433
23.98660111427307,1700000,2.426,-9.016,2.680,0.000,0.000,0.000,-223259
24.05768895149231,1705000,2.387,-9.016,2.754,0.000,0.000,0.000,-223296
24.127753973007202,1710000,2.426,-9.059,2.715,0.000,0.000,0.000,-222883
24.195053815841675,1715000,2.461,-9.059,2.715,0.000,0.000,0.000,-222898
24.268229007720947,1720000,2.461,-9.016,2.680,0.000,0.000,0.000,-222437
24.33633327484131,1725000,2.461,-9.016,2.680,0.000,0.000,0.000,-223426
24.406662940979004,1730000,2.461,-9.016,2.680,0.000,0.000,0.000,-223620
24.47383999824524,1735000,2.461,-9.020,2.715,0.000,0.000,0.000,-223171
24.545897006988525,1740000,2.426,-9.055,2.641,0.000,0.000,0.000,-222570
24.615941047668457,1745000,2.461,-9.016,2.680,0.000,0.000,0.000,-222643
24.686007022857666,1750000,2.426,-9.016,2.641,0.000,0.000,0.000,-222580
24.75732421875,1755000,2.426,-9.016,2.680,0.000,0.000,0.000,-223006
24.827797174453735,1760000,2.461,-9.055,2.680,0.000,0.000,0.000,-222967
24.89595603942871,1765000,2.461,-9.016,2.641,0.000,0.000,0.000,-223480
24.966804027557373,1770000,2.461,-9.020,2.715,0.000,0.000,0.000,-223086
25.037145853042603,1775000,2.426,-9.016,2.680,0.000,0.000,0.000,-222743
25.106189966201782,1780000,2.461,-9.016,2.680,0.000,0.000,0.000,-222979
25.17717695236206,1785000,2.461,-9.016,2.641,0.000,0.000,0.000,-222492
25.249629020690918,1790000,2.461,-9.020,2.715,0.000,0.000,0.000,-223473
25.316834211349487,1795000,2.461,-9.016,2.641,0.000,0.000,0.000,-222786
25.386085987091064,1800000,2.426,-9.016,2.680,0.000,0.000,0.000,-222767
25.45722985267639,1805000,2.461,-9.016,2.680,0.000,0.000,0.000,-223599
25.524216175079346,1810000,2.461,-9.020,2.715,0.000,0.000,0.000,-223056
25.59230899810791,1815000,2.461,-9.055,2.680,0.000,0.000,0.000,-223192
25.66444492340088,1820000,2.461,-9.055,2.641,0.000,0.000,0.000,-222823
25.73662495613098,1825000,2.426,-9.055,2.680,0.000,0.000,0.000,-223104
25.802975177764893,1830000,2.461,-9.055,2.641,0.000,0.000,0.000,-223028
25.875327110290527,1835000,2.461,-9.016,2.680,0.000,0.000,0.000,-223084
25.94937515258789,1840000,2.426,-9.016,2.641,0.000,0.000,0.000,-222804
26.017678022384644,1845000,2.426,-9.055,2.680,0.000,0.000,0.000,-222431
26.08742094039917,1850000,2.426,-9.016,2.680,0.000,0.000,0.000,-223057
26.164478063583374,1855000,2.461,-9.020,2.715,0.000,0.000,0.000,-222445
26.236655950546265,1860000,2.461,-9.055,2.641,0.000,0.000,0.000,-223078
26.30587410926819,1865000,2.426,-9.059,2.715,0.000,0.000,0.000,-222622
26.37797212600708,1870000,2.426,-9.016,2.641,0.000,0.000,0.000,-223199
26.448129177093506,1875000,2.461,-9.055,2.680,-0.008,-0.002,0.002,-222798
26.518544912338257,1880000,2.426,-9.016,2.641,0.000,-0.004,-0.002,-223165
26.589616060256958,1885000,2.426,-9.020,2.715,-0.004,0.000,0.004,-222875
26.65851616859436,1890000,2.461,-9.016,2.641,0.002,0.002,0.000,-223007
26.730212926864624,1895000,2.461,-9.016,2.641,-0.004,0.000,0.000,-223317
26.80307102203369,1900000,2.426,-9.055,2.641,0.004,0.006,0.000,-223083
26.873692989349365,1905000,2.461,-9.016,2.680,0.002,0.004,0.002,-223096
26.94770312309265,1910000,2.461,-9.055,2.641,0.002,0.000,-0.002,-222864
27.018733263015747,1915000,2.426,-9.055,2.680,-0.008,-0.004,-0.002,-222664
27.090785026550293,1920000,2.426,-9.016,2.680,0.004,0.008,0.002,-223772
27.157762050628662,1925000,2.461,-9.055,2.680,-0.006,-0.002,0.006,-223130
27.22380018234253,1930000,2.461,-9.016,2.641,0.000,0.000,-0.002,-223358
27.294188022613525,1935000,2.461,-9.016,2.680,0.002,0.000,-0.002,-223254
27.36550998687744,1940000,2.461,-9.016,2.680,0.008,-0.002,0.000,-222823
27.437462091445923,1945000,2.461,-9.055,2.641,-0.002,0.000,0.000,-222972
27.512794017791748,1950000,2.461,-9.055,2.680,0.000,0.000,0.000,-223180
27.58283305168152,1955000,2.461,-9.020,2.602,0.000,0.000,0.000,-223048
27.65277099609375,1960000,2.461,-9.020,2.715,0.000,0.000,0.000,-222983
27.725144863128662,1965000,2.461,-9.016,2.680,0.000,0.000,0.000,-223556
27.79512095451355,1970000,2.426,-9.020,2.715,0.000,0.000,0.000,-222583
27.868577241897583,1975000,2.461,-9.016,2.680,0.000,0.000,0.000,-222765
27.935816049575806,1980000,2.426,-9.016,2.641,0.000,0.000,0.000,-223475
28.008975982666016,1985000,2.461,-9.055,2.680,0.000,0.000,0.000,-223085
28.079288959503174,1990000,2.426,-9.016,2.680,0.000,0.000,0.000,-222953
28.148128032684326,1995000,2.426,-9.020,2.715,0.000,0.000,0.000,-222579
28.22163414955139,2000000,2.426,-9.059,2.715,0.000,0.000,0.000,-223193
28.295327186584473,2005000,2.461,-9.055,2.680,0.000,0.000,0.000,-222990
28.365408182144165,2010000,2.500,-9.055,2.680,0.000,0.000,0.000,-223225
28.439600944519043,2015000,2.461,-9.020,2.715,0.000,0.000,0.000,-222443
28.510414838790894,2020000,2.461,-9.016,2.641,0.000,0.000,0.000,-223073
28.581105947494507,2025000,2.461,-9.055,2.680,0.000,0.000,0.000,-222815
28.65309500694275,2030000,2.461,-9.055,2.680,0.000,0.000,0.000,-222755
28.724102020263672,2035000,2.426,-9.016,2.680,0.000,0.000,0.000,-223098
28.798150062561035,2040000,2.461,-9.016,2.680,0.000,0.000,0.000,-223136
28.869468927383423,2045000,2.426,-9.016,2.680,0.000,0.000,0.000,-222675
28.943149089813232,2050000,2.461,-9.016,2.680,0.000,0.000,0.000,-223121
29.011901140213013,2055000,2.461,-9.059,2.715,0.000,0.000,0.000,-222817
29.083373069763184,2060000,2.426,-9.016,2.680,0.000,0.000,0.000,-223123
29.155395030975342,2065000,2.461,-9.020,2.715,0.000,0.000,0.000,-223136
29.22445297241211,2070000,2.461,-9.055,2.680,0.000,0.000,0.000,-223259
29.293846130371094,2075000,2.461,-9.055,2.680,0.000,0.000,0.000,-223052
29.364766120910645,2080000,2.461,-9.055,2.641,0.000,0.000,0.000,-222747
29.434945106506348,2085000,2.461,-9.020,2.715,0.000,0.000,0.000,-221857
29.51035499572754,2090000,2.461,-9.055,2.680,0.000,0.000,0.000,-223190
29.581531047821045,2095000,2.461,-9.059,2.715,0.000,0.000,0.000,-223368
29.654255867004395,2100000,2.461,-9.016,2.641,0.000,0.000,0.000,-223592
29.725674152374268,2105000,2.461,-9.020,2.715,0.000,0.000,0.000,-223111
29.79985499382019,2110000,2.426,-9.055,2.680,0.000,0.000,0.000,-222480
29.871992826461792,2115000,2.461,-9.016,2.680,0.000,0.000,0.000,-223295
29.94434690475464,2120000,2.461,-9.055,2.680,0.000,0.000,0.000,-222909
30.01644802093506,2125000,2.461,-9.059,2.715,0.000,0.000,0.000,-223177
30.08949303627014,2130000,2.461,-9.055,2.680,0.000,0.000,0.000,-222845
30.156787157058716,2135000,2.461,-9.016,2.680,0.000,0.000,0.000,-222950
30.226017236709595,2140000,2.461,-9.055,2.680,0.000,0.000,0.000,-223331
30.301158905029297,2145000,2.426,-9.055,2.641,0.000,0.000,0.000,-222344
30.371095895767212,2150000,2.461,-9.055,2.680,0.000,0.000,0.000,-223088
30.442355155944824,2155000,2.461,-9.016,2.680,0.000,0.000,0.000,-223032
30.511373043060303,2160000,2.461,-9.016,2.680,0.000,0.000,0.000,-223248
30.584572076797485,2165000,2.426,-9.020,2.715,0.000,0.000,0.000,-222987
30.656558990478516,2170000,2.426,-9.055,2.680,0.000,0.000,0.000,-222676
30.730091094970703,2175000,2.461,-9.016,2.641,0.000,0.000,0.000,-222991
30.800179958343506,2180000,2.426,-9.016,2.680,0.000,0.000,0.000,-222971
30.87125587463379,2185000,2.461,-9.055,2.680,0.000,0.000,0.000,-222931
30.9424889087677,2190000,2.461,-9.059,2.715,0.000,0.000,0.000,-223112
31.016704082489014,2195000,2.426,-9.055,2.680,0.000,0.000,0.000,-223143
31.0868501663208,2200000,2.461,-9.016,2.641,0.000,0.000,0.000,-222424
31.157702922821045,2205000,2.461,-9.055,2.680,0.000,0.000,0.000,-223018
31.231173038482666,2210000,2.461,-9.016,2.641,0.000,0.000,0.000,-222641
31.305327892303467,2215000,2.461,-9.055,2.680,0.000,0.000,0.000,-223149
31.37654209136963,2220000,2.426,-9.055,2.680,0.000,0.000,0.000,-222789
31.44968891143799,2225000,2.426,-9.055,2.680,0.000,0.000,0.000,-223264
31.521066188812256,2230000,2.461,-9.016,2.680,0.000,0.000,0.000,-222747
31.590970039367676,2235000,2.426,-9.016,2.641,0.000,0.000,0.000,-223510
31.660778999328613,2240000,2.426,-9.055,2.680,0.000,0.000,0.000,-223186
31.729350090026855,2245000,2.461,-9.055,2.680,0.000,0.000,0.000,-223194
31.800507068634033,2250000,2.461,-9.020,2.715,0.000,0.000,0.000,-223002
31.87860894203186,2255000,2.461,-9.020,2.715,0.000,0.000,0.000,-223201
31.95259714126587,2260000,2.461,-9.016,2.680,0.000,0.000,0.000,-222917
32.02414798736572,2265000,2.461,-9.055,2.680,0.000,0.000,0.000,-223687
32.096758127212524,2270000,2.461,-9.055,2.680,0.000,0.000,0.000,-222834
32.16793894767761,2275000,2.426,-9.055,2.641,0.000,0.000,0.000,-223277
32.23710489273071,2280000,2.426,-9.020,2.715,0.000,0.000,0.000,-222912
32.30838990211487,2285000,2.461,-9.055,2.641,0.000,0.000,0.000,-222723
32.3828010559082,2290000,2.461,-9.055,2.680,0.000,0.000,0.000,-222611
32.4536509513855,2295000,2.461,-9.055,2.641,0.000,0.000,0.000,-222600
32.52769112586975,2300000,2.461,-9.016,2.680,0.000,0.000,0.000,-223757
32.60119104385376,2305000,2.461,-9.055,2.680,0.000,0.000,0.000,-222719
32.67209815979004,2310000,2.461,-9.055,2.680,0.000,0.000,0.000,-222971
32.74354696273804,2315000,2.461,-9.016,2.680,0.000,0.000,0.000,-222895
32.81681203842163,2320000,2.461,-9.059,2.715,0.000,0.000,0.000,-222402
32.88759899139404,2325000,2.461,-9.016,2.641,0.000,0.000,0.000,-223122
32.95586895942688,2330000,2.461,-9.059,2.715,0.000,0.000,0.000,-222842
33.029486894607544,2335000,2.461,-9.059,2.602,0.000,0.000,0.000,-222846
33.10248303413391,2340000,2.461,-9.055,2.680,0.000,0.000,0.000,-222814
33.173280000686646,2345000,2.461,-9.055,2.680,0.000,0.000,0.000,-222534
33.24348306655884,2350000,2.461,-9.059,2.715,0.000,0.000,0.000,-223500
33.31776809692383,2355000,2.461,-9.016,2.641,0.000,0.000,0.000,-222902
33.38861703872681,2360000,2.461,-9.020,2.715,0.000,0.000,0.000,-222642
33.46004509925842,2365000,2.461,-9.016,2.680,0.000,0.000,0.000,-222811
33.53430199623108,2370000,2.461,-9.016,2.680,0.000,0.000,0.000,-222566
33.60650086402893,2375000,2.461,-9.016,2.680,0.000,0.000,0.000,-223069
33.67832612991333,2380000,2.461,-9.020,2.754,0.000,0.000,0.000,-222872
33.750240087509155,2385000,2.461,-9.016,2.680,0.000,0.000,0.000,-222843
33.8225519657135,2390000,2.461,-9.055,2.680,0.000,0.000,0.000,-222779
33.897337913513184,2395000,2.461,-9.016,2.680,0.000,0.000,0.000,-223169
33.96925187110901,2400000,2.461,-9.016,2.680,0.000,0.000,0.000,-223028
34.04243993759155,2405000,2.426,-9.055,2.680,0.000,0.000,0.000,-223034
34.11454391479492,2410000,2.461,-9.055,2.680,0.000,0.000,0.000,-223032
34.18849205970764,2415000,2.426,-9.055,2.680,0.000,0.000,0.000,-222508
34.259807109832764,2420000,2.461,-9.055,2.680,0.000,0.000,0.000,-222945
34.33299207687378,2425000,2.461,-9.016,2.680,0.000,0.000,0.000,-222493
34.40523719787598,2430000,2.426,-9.059,2.715,0.000,0.000,0.000,-222704
34.4751980304718,2435000,2.461,-9.055,2.680,0.000,0.000,0.000,-223249
34.545162200927734,2440000,2.426,-9.016,2.641,0.000,0.000,0.000,-223754
34.617738008499146,2445000,2.426,-9.016,2.641,0.000,0.000,0.000,-223002
34.68976712226868,2450000,2.426,-9.016,2.641,0.000,0.000,0.000,-223343
34.75993895530701,2455000,2.461,-9.055,2.641,0.000,0.000,0.000,-223021
34.83212494850159,2460000,2.461,-9.055,2.680,0.000,0.000,0.000,-223393
34.90428185462952,2465000,2.461,-9.016,2.680,0.000,0.000,0.000,-222808
34.97448515892029,2470000,2.461,-9.055,2.680,0.000,0.000,0.000,-222353
35.04570198059082,2475000,2.461,-9.016,2.641,0.000,0.000,0.000,-223360
35.11948609352112,2480000,2.461,-9.059,2.715,0.000,0.000,0.000,-222580
35.1908061504364,2485000,2.461,-9.055,2.641,0.000,0.000,0.000,-222832
35.263099908828735,2490000,2.461,-9.020,2.715,0.000,0.000,0.000,-223386
35.33519196510315,2495000,2.426,-9.016,2.680,0.000,0.000,0.000,-222574
35.409127950668335,2500000,2.461,-9.016,2.680,0.000,0.000,0.000,-222921
35.47953224182129,2505000,2.461,-9.055,2.641,0.000,0.000,0.000,-223322
35.54967999458313,2510000,2.461,-9.020,2.715,0.000,0.000,0.000,-222896
35.62381911277771,2515000,2.426,-9.059,2.715,0.000,0.000,0.000,-222631
35.69603204727173,2520000,2.426,-9.020,2.715,0.000,0.000,0.000,-223193
35.76657319068909,2525000,2.461,-9.016,2.641,0.000,0.000,0.000,-223040
35.83512306213379,2530000,2.426,-9.016,2.680,0.000,0.000,0.000,-223487
35.90824294090271,2535000,2.461,-9.016,2.680,0.000,0.000,0.000,-223204
35.97947812080383,2540000,2.461,-9.016,2.680,0.000,0.000,0.000,-223663
36.0525689125061,2545000,2.426,-9.016,2.641,0.000,0.000,0.000,-222776
36.12370014190674,2550000,2.461,-9.055,2.641,0.000,0.000,0.000,-222708
36.193958044052124,2555000,2.461,-9.059,2.715,0.000,0.000,0.000,-223091
36.26637506484985,2560000,2.461,-9.016,2.641,0.000,0.000,0.000,-222734
36.33618688583374,2565000,2.461,-9.020,2.715,0.000,0.000,0.000,-222843
36.404335021972656,2570000,2.461,-9.016,2.680,0.000,0.000,0.000,-223384
36.47575783729553,2575000,2.426,-9.055,2.680,0.000,0.000,0.000,-222659
36.548643827438354,2580000,2.461,-9.016,2.641,0.000,0.000,0.000,-222946
36.61687397956848,2585000,2.461,-9.020,2.715,0.000,0.000,0.000,-223431
36.69002103805542,2590000,2.461,-9.016,2.641,0.000,0.000,0.000,-222976
36.76119303703308,2595000,2.461,-9.055,2.680,0.000,0.000,0.000,-222902
36.83125114440918,2600000,2.426,-9.020,2.602,0.000,0.000,0.000,-223275
36.901485204696655,2605000,2.426,-9.020,2.715,0.000,0.000,0.000,-222883
36.97422814369202,2610000,2.461,-9.055,2.680,0.000,0.000,0.000,-223465
37.04187202453613,2615000,2.461,-9.059,2.754,0.000,0.000,0.000,-222933
37.11023187637329,2620000,2.426,-9.016,2.680,0.000,0.000,0.000,-223486
37.18515205383301,2625000,2.426,-9.020,2.715,0.000,0.000,0.000,-222721
37.25515294075012,2630000,2.461,-9.055,2.641,0.000,0.000,0.000,-222626
37.32650709152222,2635000,2.461,-9.059,2.715,0.000,0.000,0.000,-223341
37.40057301521301,2640000,2.461,-9.016,2.641,0.000,0.000,0.000,-223375
37.46976900100708,2645000,2.426,-9.055,2.680,0.000,0.000,0.000,-223047
37.53992295265198,2650000,2.500,-9.020,2.715,0.000,0.000,0.000,-222998
37.61013412475586,2655000,2.461,-9.020,2.715,0.000,0.000,0.000,-223346
37.68340015411377,2660000,2.500,-9.055,2.680,0.000,0.000,0.000,-223458
37.752399921417236,2665000,2.461,-9.016,2.680,0.000,0.000,0.000,-223019
37.82188391685486,2670000,2.461,-9.055,2.680,0.000,0.000,0.000,-222594
37.89597511291504,2675000,2.461,-9.016,2.641,0.000,0.000,0.000,-223207
37.965713024139404,2680000,2.461,-9.055,2.680,0.000,0.000,0.000,-223290
38.0330069065094,2685000,2.461,-9.016,2.680,0.000,0.000,0.000,-223323
38.10212206840515,2690000,2.461,-9.059,2.715,0.000,0.000,0.000,-222635
38.173333168029785,2695000,2.461,-9.055,2.641,0.000,0.000,0.000,-222604
38.24255394935608,2700000,2.426,-9.055,2.680,0.000,0.000,0.000,-222768
38.312783002853394,2705000,2.426,-9.016,2.641,0.000,0.000,0.000,-223255
38.384207010269165,2710000,2.500,-9.016,2.680,0.000,0.000,0.000,-223115
38.456079959869385,2715000,2.461,-9.016,2.641,0.000,0.000,0.000,-222300
38.5254340171814,2720000,2.426,-9.016,2.680,0.000,0.000,0.000,-223301
38.59752702713013,2725000,2.461,-9.055,2.680,0.000,0.000,0.000,-223103
38.671518087387085,2730000,2.426,-9.055,2.680,0.000,0.000,0.000,-222725
38.742558002471924,2735000,2.461,-9.055,2.680,0.000,0.000,0.000,-223089
38.81469917297363,2740000,2.426,-9.016,2.641,0.000,0.000,0.000,-222766
38.88300609588623,2745000,2.426,-9.020,2.715,0.000,0.000,0.000,-222599
38.95241189002991,2750000,2.461,-9.016,2.680,0.000,0.000,0.000,-223153
39.0223491191864,2755000,2.426,-9.016,2.680,0.000,0.000,0.000,-222571
39.093570947647095,2760000,2.461,-9.016,2.680,0.000,0.000,0.000,-222807
39.16665983200073,2765000,2.461,-9.059,2.715,0.000,0.000,0.000,-222851
39.24018120765686,2770000,2.426,-9.016,2.680,0.000,0.000,0.000,-222582
39.311394929885864,2775000,2.500,-9.055,2.680,0.000,0.000,0.000,-223048
39.38114905357361,2780000,2.426,-9.016,2.680,0.000,0.000,0.000,-223276
39.45368409156799,2785000,2.426,-9.020,2.715,0.000,0.000,0.000,-222783
39.526543855667114,2790000,2.461,-9.016,2.641,0.000,0.000,0.000,-223074
39.59784984588623,2795000,2.461,-9.016,2.680,0.000,0.000,0.000,-223133
39.66774296760559,2800000,2.426,-9.016,2.680,0.000,0.000,0.000,-223322
39.739227056503296,2805000,2.461,-9.055,2.680,0.000,0.000,0.000,-223266
39.81141519546509,2810000,2.461,-9.055,2.680,0.000,0.000,0.000,-222271
39.882513999938965,2815000,2.426,-9.020,2.715,0.000,0.000,0.000,-222616
39.953718185424805,2820000,2.461,-9.055,2.680,0.000,0.000,0.000,-221906
40.026735067367554,2825000,2.426,-9.055,2.680,0.000,0.000,0.000,-221944
40.09713912010193,2830000,2.461,-9.016,2.680,0.000,0.000,0.000,-222164
40.170910120010376,2835000,2.461,-9.059,2.715,0.000,0.000,0.000,-221623
40.24254488945007,2840000,2.426,-8.977,2.602,0.000,0.000,0.000,-222113
40.314144134521484,2845000,2.461,-9.020,2.715,0.000,0.000,0.000,-221677
40.386455059051514,2850000,2.461,-9.059,2.715,0.000,0.000,0.000,-222359
40.45858383178711,2855000,2.461,-9.055,2.641,0.000,0.000,0.000,-221802
40.530856132507324,2860000,2.426,-9.059,2.715,0.000,0.000,0.000,-221999
40.599682092666626,2865000,2.426,-9.016,2.680,0.000,0.000,0.000,-222524
40.67488217353821,2870000,2.426,-9.020,2.715,0.000,0.000,0.000,-222289
40.74409198760986,2875000,2.461,-9.020,2.602,0.000,0.000,0.000,-222140
40.81623411178589,2880000,2.461,-9.016,2.680,0.000,0.000,0.000,-221873
40.886569023132324,2885000,2.461,-9.016,2.680,0.000,0.000,0.000,-221974
40.95848608016968,2890000,2.461,-9.016,2.641,0.000,0.000,0.000,-222389
41.02776885032654,2895000,2.461,-9.055,2.680,0.000,0.000,0.000,-222324
41.10189390182495,2900000,2.426,-9.055,2.680,0.000,0.000,0.000,-222045
41.17513394355774,2905000,2.461,-9.055,2.641,0.000,0.000,0.000,-222005
41.244479179382324,2910000,2.500,-9.055,2.680,0.000,0.000,0.000,-222239
41.31600594520569,2915000,2.461,-9.016,2.680,0.000,0.000,0.000,-222033
41.38798499107361,2920000,2.426,-9.055,2.641,0.000,0.000,0.000,-222163
41.45910906791687,2925000,2.426,-9.016,2.641,0.000,0.000,0.000,-221570
41.53066396713257,2930000,2.461,-9.020,2.715,0.000,0.000,0.000,-222225
41.60051417350769,2935000,2.500,-9.016,2.641,0.000,0.000,0.000,-221625
41.67266392707825,2940000,2.461,-9.055,2.680,0.000,0.000,0.000,-221927
41.745563983917236,2945000,2.426,-9.016,2.641,0.000,0.000,0.000,-222316
41.818597078323364,2950000,2.426,-9.055,2.680,0.000,0.000,0.000,-221231
41.89077806472778,2955000,2.426,-9.016,2.680,0.000,0.000,0.000,-221729
41.962202072143555,2960000,2.461,-9.020,2.715,0.000,0.000,0.000,-222093
42.03554320335388,2965000,2.461,-9.055,2.641,0.000,0.000,0.000,-222016
42.105759143829346,2970000,2.426,-9.016,2.641,0.000,0.000,0.000,-222530
42.17747116088867,2975000,2.461,-9.055,2.641,0.002,0.004,-0.008,-222368
42.24990391731262,2980000,2.461,-9.020,2.715,0.004,-0.004,-0.004,-222264
42.319709062576294,2985000,2.426,-9.055,2.641,0.002,-0.002,0.000,-221903
42.39107322692871,2990000,2.426,-9.016,2.680,-0.002,0.000,-0.002,-222203
42.456326961517334,2995000,2.461,-9.055,2.680,0.006,0.000,0.004,-222230
42.52546215057373,3000000,2.426,-9.020,2.715,0.004,0.000,0.004,-221750
42.604565143585205,3005000,2.461,-9.016,2.641,0.002,-0.002,-0.004,-221799
42.6745810508728,3010000,2.426,-9.020,2.715,0.002,-0.004,0.000,-222247
42.74767589569092,3015000,2.461,-9.055,2.680,0.006,0.000,-0.006,-221850
42.81586003303528,3020000,2.461,-9.059,2.715,0.000,-0.004,-0.004,-222172
42.8852801322937,3025000,2.461,-9.016,2.680,0.004,0.000,0.000,-222263
42.955458879470825,3030000,2.461,-9.059,2.715,0.004,-0.004,0.000,-221854
43.02636098861694,3035000,2.461,-9.016,2.680,0.002,0.002,0.000,-222088
43.09623312950134,3040000,2.461,-9.016,2.641,-0.004,-0.004,-0.004,-222392
43.16579794883728,3045000,2.461,-9.016,2.680,-0.002,0.000,-0.002,-221755
43.237985134124756,3050000,2.461,-9.016,2.641,0.000,0.000,0.000,-221374
43.310062885284424,3055000,2.426,-9.020,2.715,0.000,0.000,0.000,-222000
43.37978410720825,3060000,2.461,-9.020,2.602,0.000,0.000,0.000,-221871
43.45155692100525,3065000,2.461,-9.059,2.832,0.000,-0.002,-0.006,-221825
43.51951599121094,3070000,2.426,-9.020,2.602,-0.004,0.000,-0.004,-221501
43.58884906768799,3075000,2.461,-9.020,2.715,0.004,-0.010,0.000,-221227
43.6588339805603,3080000,2.461,-9.055,2.641,-0.002,-0.004,0.002,-221939
43.72594428062439,3085000,2.461,-9.016,2.680,0.000,0.002,-0.004,-221852
43.79499816894531,3090000,2.461,-9.055,2.680,0.002,0.002,0.004,-222294
43.86620306968689,3095000,2.461,-9.016,2.680,-0.002,0.000,-0.002,-221540
43.9346649646759,3100000,2.500,-9.098,2.680,0.002,0.000,0.000,-221788
44.0048611164093,3105000,2.500,-9.016,2.680,0.002,-0.002,-0.002,-222230
44.075112104415894,3110000,2.500,-9.055,2.680,-0.010,-0.014,-0.006,-221965
44.1463041305542,3115000,2.426,-9.016,2.641,0.000,-0.006,-0.008,-222453
44.214295864105225,3120000,2.461,-9.020,2.563,0.000,-0.006,0.000,-222028
44.283501863479614,3125000,2.461,-9.020,2.715,0.010,-0.012,-0.002,-222020
44.358453035354614,3130000,2.500,-9.059,2.715,-0.004,-0.002,0.004,-221934
44.426888942718506,3135000,2.426,-8.980,2.680,0.004,0.002,0.002,-221826
44.4960880279541,3140000,2.461,-9.016,2.680,0.006,-0.004,0.002,-221563
44.56525707244873,3145000,2.539,-9.059,2.793,0.000,-0.006,0.006,-221326
44.63680911064148,3150000,2.426,-9.016,2.641,0.002,-0.010,-0.002,-221755
44.70240497589111,3155000,2.461,-9.055,2.680,0.000,0.008,0.004,-221236
44.77683997154236,3160000,2.426,-8.980,2.641,0.002,-0.004,-0.004,-221926
44.84897208213806,3165000,2.461,-9.094,2.754,0.004,0.012,-0.004,-221766
44.91803598403931,3170000,2.461,-8.980,2.680,-0.010,0.000,-0.002,-221624
44.987128257751465,3175000,2.461,-9.094,2.715,0.004,0.004,-0.016,-221333
45.05932903289795,3180000,2.387,-9.059,2.680,-0.006,0.008,0.002,-221673
45.12750816345215,3185000,2.461,-9.055,2.680,-0.006,0.004,0.010,-222051
45.198704957962036,3190000,2.426,-9.059,2.715,0.004,-0.006,-0.002,-221973
45.27079105377197,3195000,2.461,-9.016,2.680,-0.012,0.002,0.004,-221750
45.33890700340271,3200000,2.500,-9.020,2.715,0.006,-0.002,0.002,-221552
45.40708804130554,3205000,2.461,-9.016,2.680,-0.008,0.002,-0.002,-221843
45.480371952056885,3210000,2.426,-8.977,2.602,0.002,0.010,0.002,-222631
45.552513122558594,3215000,2.461,-9.059,2.715,-0.004,0.008,-0.002,-222728
45.62365102767944,3220000,2.461,-9.059,2.715,0.004,0.002,0.000,-222975
45.69602012634277,3225000,2.461,-9.016,2.680,-0.004,0.006,-0.002,-223603
45.76776599884033,3230000,2.461,-9.020,2.715,0.002,-0.002,0.000,-222419
45.83903384208679,3235000,2.461,-9.016,2.641,-0.004,0.002,-0.002,-221767
45.90854096412659,3240000,2.426,-9.055,2.680,0.002,0.002,0.006,-222390
45.97968912124634,3245000,2.426,-9.055,2.641,-0.006,0.002,0.004,-222628
46.048768043518066,3250000,2.426,-9.016,2.680,0.004,0.000,0.004,-222254
46.116493940353394,3255000,2.461,-9.016,2.641,0.002,-0.002,0.000,-222406
46.184926986694336,3260000,2.500,-9.059,2.715,0.002,-0.002,0.000,-221564
46.25682497024536,3265000,2.461,-9.055,2.641,0.000,-0.002,0.000,-222255
46.32797288894653,3270000,2.461,-9.016,2.641,0.002,0.000,0.004,-222687
46.40125799179077,3275000,2.500,-9.016,2.680,0.004,-0.002,-0.002,-222294
46.471282958984375,3280000,2.461,-9.059,2.715,0.002,0.000,0.004,-221472
46.538623094558716,3285000,2.426,-9.016,2.680,-0.004,0.002,0.004,-221743
46.60460090637207,3290000,2.426,-9.020,2.602,0.002,0.000,0.000,-221266
46.67780804634094,3295000,2.426,-9.020,2.715,-0.002,-0.002,0.000,-222395
46.7472939491272,3300000,2.461,-9.016,2.641,0.004,0.000,0.004,-221928
46.821167945861816,3305000,2.461,-9.016,2.680,0.000,0.000,0.000,-221770
46.89138317108154,3310000,2.461,-9.016,2.641,-0.002,0.006,0.004,-222031
46.959426164627075,3315000,2.461,-9.016,2.680,-0.004,-0.002,0.000,-222506
47.02787113189697,3320000,2.426,-9.055,2.680,-0.008,0.000,0.000,-222458
47.09722089767456,3325000,2.461,-9.055,2.680,0.002,0.006,0.002,-222494
47.16809105873108,3330000,2.500,-9.016,2.641,0.002,0.002,-0.004,-221325
47.23839211463928,3335000,2.426,-9.020,2.715,0.002,-0.002,0.000,-221964
47.30950689315796,3340000,2.461,-9.055,2.680,0.000,0.000,0.006,-221365
47.3817081451416,3345000,2.461,-9.020,2.602,-0.006,-0.002,0.004,-221644
47.45290517807007,3350000,2.426,-9.020,2.715,0.000,-0.006,0.004,-221314
47.523810148239136,3355000,2.461,-9.016,2.680,-0.004,-0.002,-0.004,-221690
47.594897985458374,3360000,2.426,-9.020,2.715,0.002,0.000,-0.002,-221879
47.66662406921387,3365000,2.461,-9.016,2.641,0.004,0.000,-0.002,-221913
47.73832988739014,3370000,2.426,-9.055,2.680,0.004,-0.002,0.000,-222043
47.809468030929565,3375000,2.461,-9.016,2.680,-0.006,-0.004,-0.002,-221440
47.877984046936035,3380000,2.461,-9.055,2.680,0.000,0.002,0.000,-222140
47.94692897796631,3385000,2.461,-9.055,2.680,0.000,0.000,0.000,-222332
48.0189049243927,3390000,2.461,-9.055,2.680,0.000,0.000,0.000,-221965
48.09339618682861,3395000,2.461,-9.016,2.641,0.000,0.000,0.000,-222068
48.16350698471069,3400000,2.461,-9.059,2.715,0.000,0.000,0.000,-221936
48.23258304595947,3405000,2.461,-9.016,2.680,0.000,0.000,0.000,-221891
48.304604053497314,3410000,2.426,-9.055,2.680,0.000,0.000,0.000,-221772
48.37309288978577,3415000,2.461,-9.020,2.715,0.002,-0.004,0.004,-222481
48.44326686859131,3420000,2.461,-9.055,2.641,0.002,-0.002,-0.002,-221771
48.51470112800598,3425000,2.461,-9.055,2.641,0.000,0.000,-0.006,-221805
48.58765506744385,3430000,2.461,-9.020,2.715,0.000,0.000,-0.004,-221389
48.657591104507446,3435000,2.461,-9.055,2.680,0.000,0.000,-0.002,-221504
48.729487895965576,3440000,2.461,-9.055,2.680,0.002,-0.006,0.000,-222155
48.80155801773071,3445000,2.461,-9.055,2.680,-0.002,-0.002,0.004,-221735
48.87269997596741,3450000,2.461,-9.016,2.680,0.000,0.000,-0.002,-221282
48.9434609413147,3455000,2.461,-9.016,2.680,0.002,0.000,-0.004,-221784
49.013731956481934,3460000,2.426,-9.016,2.641,-0.004,0.000,0.000,-222324
49.085517168045044,3465000,2.461,-9.059,2.715,0.002,-0.004,-0.004,-221741
49.15574097633362,3470000,2.461,-9.055,2.641,0.000,0.002,-0.004,-221898
49.225547075271606,3475000,2.461,-9.055,2.641,-0.002,0.002,0.000,-221824
49.29790019989014,3480000,2.461,-9.016,2.641,-0.004,0.000,-0.004,-222193
49.36928105354309,3485000,2.461,-9.016,2.680,0.000,0.000,0.000,-221456
49.441078186035156,3490000,2.461,-9.055,2.641,0.000,0.000,0.000,-222209
49.5104079246521,3495000,2.426,-9.016,2.680,0.000,0.000,0.000,-222052
49.583818197250366,3500000,2.426,-9.055,2.641,0.000,0.000,0.000,-222198
49.658915996551514,3505000,2.461,-9.059,2.715,0.000,0.000,0.000,-221819
49.72917103767395,3510000,2.461,-9.055,2.641,0.000,0.000,0.000,-222053
49.79999303817749,3515000,2.461,-9.055,2.680,0.000,0.000,0.000,-222270
49.87130904197693,3520000,2.426,-9.020,2.715,0.000,0.000,0.000,-221775
49.943520069122314,3525000,2.461,-9.055,2.680,0.000,0.000,0.000,-222170
50.014549016952515,3530000,2.461,-9.016,2.680,0.000,0.000,0.000,-222034
50.08656287193298,3535000,2.461,-9.016,2.680,0.000,0.000,0.000,-222084
50.16072702407837,3540000,2.461,-9.016,2.641,0.000,0.000,0.000,-223099
50.227872133255005,3545000,2.461,-9.020,2.715,0.000,0.000,0.000,-222972
50.29996395111084,3550000,2.461,-9.016,2.680,0.000,0.000,0.000,-222649
50.37553596496582,3555000,2.461,-9.016,2.680,0.000,0.000,0.000,-222520
50.44667100906372,3560000,2.461,-9.055,2.680,0.000,0.000,0.000,-223389
50.5185821056366,3565000,2.461,-9.059,2.715,0.000,0.000,0.000,-222603
50.588698863983154,3570000,2.461,-9.020,2.715,0.000,0.000,0.000,-222580
50.66315293312073,3575000,2.461,-9.020,2.715,0.000,0.000,0.000,-223381
50.73425102233887,3580000,2.461,-9.016,2.680,0.000,0.000,0.000,-222978
50.804080963134766,3585000,2.426,-9.016,2.680,0.000,0.000,0.000,-222203
50.87428689002991,3590000,2.461,-9.055,2.680,0.000,0.000,0.000,-223038
50.946601152420044,3595000,2.461,-9.055,2.680,0.000,0.000,0.000,-222996
51.0180561542511,3600000,2.461,-9.016,2.680,0.000,0.000,0.000,-223433
51.09141302108765,3605000,2.461,-9.016,2.680,0.000,0.000,0.000,-222336
51.159969091415405,3610000,2.426,-9.055,2.680,0.000,0.000,0.000,-222545
51.22938919067383,3615000,2.461,-9.055,2.680,0.000,0.000,0.000,-223104
51.300650119781494,3620000,2.461,-9.059,2.715,0.000,0.000,0.000,-222945
51.372780084609985,3625000,2.461,-9.016,2.641,0.000,0.000,0.000,-222373
51.445022106170654,3630000,2.426,-9.016,2.680,0.000,0.000,0.000,-222757
51.51700806617737,3635000,2.426,-9.016,2.641,0.000,0.000,0.000,-222831
51.58891820907593,3640000,2.426,-9.055,2.680,0.000,0.000,0.000,-222640
51.661227226257324,3645000,2.461,-9.020,2.715,0.000,0.000,0.000,-223228
51.73356008529663,3650000,2.500,-9.016,2.641,0.000,0.000,0.000,-222591
51.80542612075806,3655000,2.461,-9.059,2.715,0.000,0.000,0.000,-222441
51.87496900558472,3660000,2.461,-9.016,2.680,0.000,0.000,0.000,-223101
51.94904899597168,3665000,2.426,-9.016,2.680,0.000,0.000,0.000,-223149
52.02088904380798,3670000,2.500,-9.016,2.680,0.000,0.000,0.000,-222269
52.08836889266968,3675000,2.461,-9.016,2.641,0.000,0.000,0.000,-222604
52.15956115722656,3680000,2.461,-9.016,2.680,0.000,0.000,0.000,-223054
52.232813119888306,3685000,2.461,-9.016,2.680,0.000,0.000,0.000,-222497
52.30449604988098,3690000,2.426,-9.059,2.715,0.000,0.000,0.000,-222916
52.37294006347656,3695000,2.461,-9.016,2.680,0.000,0.000,0.000,-222652
52.44819688796997,3700000,2.461,-9.055,2.680,0.000,0.000,0.000,-223315
52.520495891571045,3705000,2.461,-9.016,2.680,0.000,0.000,0.000,-222995
52.59213399887085,3710000,2.461,-9.055,2.680,0.000,0.000,0.000,-222651
52.66562008857727,3715000,2.426,-9.055,2.680,0.000,0.000,0.000,-223655
52.73574614524841,3720000,2.426,-9.016,2.680,0.000,0.000,0.000,-222707
52.80271124839783,3725000,2.461,-9.016,2.641,0.000,0.000,0.000,-222824
52.87423491477966,3730000,2.461,-9.020,2.715,0.000,0.000,0.000,-222861
52.94832706451416,3735000,2.461,-9.016,2.680,0.000,0.000,0.000,-222935
53.01615023612976,3740000,2.500,-9.055,2.680,-0.006,-0.002,-0.004,-223161
53.086430072784424,3745000,2.461,-9.055,2.680,0.004,-0.012,-0.006,-222898
53.15831398963928,3750000,2.426,-9.055,2.680,-0.004,0.002,0.006,-222442
53.22801399230957,3755000,2.461,-9.016,2.680,0.000,0.002,-0.002,-222765
53.30086803436279,3760000,2.461,-9.055,2.641,-0.004,-0.010,-0.002,-222112
53.375981092453,3765000,2.426,-9.016,2.680,0.004,0.002,0.002,-222865
53.448758125305176,3770000,2.461,-9.016,2.680,-0.008,0.006,0.006,-223289
53.51860523223877,3775000,2.461,-9.016,2.641,-0.002,0.000,0.000,-222425
53.5886549949646,3780000,2.461,-9.055,2.680,-0.004,0.002,-0.002,-223379
53.659021854400635,3785000,2.461,-9.016,2.680,0.004,0.002,0.000,-223034
53.72720217704773,3790000,2.461,-9.020,2.715,0.002,0.004,-0.002,-223073
53.797709226608276,3795000,2.461,-9.016,2.680,0.004,0.006,0.000,-223236
53.87001395225525,3800000,2.461,-9.016,2.641,-0.004,-0.002,-0.002,-222999
53.94171094894409,3805000,2.461,-9.016,2.680,0.006,0.002,-0.002,-222751
54.010843992233276,3810000,2.461,-9.016,2.680,-0.002,-0.002,-0.002,-222503
54.08604717254639,3815000,2.426,-9.016,2.680,0.002,0.000,-0.006,-223005
54.153879165649414,3820000,2.426,-9.016,2.680,-0.004,-0.002,0.004,-222564
54.22295618057251,3825000,2.461,-9.055,2.680,0.006,0.002,0.000,-222781
54.29235219955444,3830000,2.461,-9.055,2.641,0.000,0.000,0.000,-223066
54.365833044052124,3835000,2.426,-9.016,2.680,0.000,0.000,0.000,-223246
54.436784982681274,3840000,2.461,-9.016,2.680,0.000,0.000,0.000,-222660
54.505167961120605,3845000,2.461,-9.016,2.680,0.000,0.000,0.000,-223398
54.578750133514404,3850000,2.426,-9.016,2.680,0.000,0.000,0.000,-222866
54.649242877960205,3855000,2.461,-9.055,2.680,0.000,0.000,0.000,-223359
54.719000816345215,3860000,2.461,-9.055,2.680,0.000,0.000,0.000,-223340
54.79110312461853,3865000,2.426,-9.016,2.641,0.000,0.000,0.000,-222605
54.865488052368164,3870000,2.461,-9.016,2.680,0.000,0.000,0.000,-223430
54.93905711174011,3875000,2.461,-9.016,2.641,0.000,0.000,0.000,-222666
55.01011323928833,3880000,2.426,-9.016,2.680,0.000,0.000,0.000,-222943
55.08305907249451,3885000,2.461,-9.016,2.680,0.000,0.000,0.000,-223019
55.152435064315796,3890000,2.500,-9.016,2.680,0.000,0.000,0.000,-222819
55.224408864974976,3895000,2.461,-9.016,2.680,0.000,0.000,0.000,-222859
55.29336404800415,3900000,2.461,-9.055,2.680,0.000,0.000,0.000,-222961
55.36480903625488,3905000,2.426,-9.020,2.715,0.000,0.000,0.000,-222680
55.4360249042511,3910000,2.461,-9.055,2.680,0.000,0.000,0.000,-222898
55.510159969329834,3915000,2.426,-9.016,2.680,0.000,0.000,0.000,-222747
55.57925200462341,3920000,2.461,-9.016,2.680,0.000,0.000,0.000,-222534
55.64886784553528,3925000,2.426,-9.055,2.641,0.000,0.000,0.000,-223317
55.71943521499634,3930000,2.461,-9.016,2.641,0.000,0.000,0.000,-223115
55.79056406021118,3935000,2.461,-9.055,2.680,0.000,0.000,0.000,-223012
55.8637170791626,3940000,2.461,-9.020,2.715,0.000,0.000,0.000,-223048
55.93517708778381,3945000,2.461,-9.055,2.680,0.000,0.000,0.000,-222927
56.00599408149719,3950000,2.461,-9.016,2.680,0.000,0.000,0.000,-222723
56.07555317878723,3955000,2.461,-9.016,2.641,0.000,0.000,0.000,-222799
56.14922904968262,3960000,2.461,-9.016,2.680,0.000,0.000,0.000,-222794
56.22064399719238,3965000,2.461,-9.055,2.680,0.000,0.000,0.000,-222059
56.28881001472473,3970000,2.461,-9.055,2.680,0.000,0.000,0.000,-222371
56.3600640296936,3975000,2.461,-9.055,2.641,0.000,0.000,0.000,-223142
56.4312310218811,3980000,2.426,-9.055,2.680,0.000,0.000,0.000,-223255
56.5039119720459,3985000,2.461,-9.016,2.641,0.000,0.000,0.000,-222382
56.57666492462158,3990000,2.461,-9.055,2.680,0.000,0.000,0.000,-222682
56.6497700214386,3995000,2.461,-9.020,2.715,0.000,0.000,0.000,-222437
56.720162868499756,4000000,2.461,-9.055,2.680,0.000,0.000,0.000,-222404
56.788074016571045,4005000,2.461,-9.055,2.641,0.000,0.000,0.000,-222351
56.86124610900879,4010000,2.461,-9.016,2.641,0.000,0.000,0.000,-223601
56.931803941726685,4015000,2.461,-9.016,2.641,0.000,0.000,0.000,-222958
56.99954104423523,4020000,2.461,-9.055,2.641,0.000,0.000,0.000,-223211
57.072932958602905,4025000,2.461,-9.055,2.680,0.000,0.000,0.000,-222469
57.14457416534424,4030000,2.461,-9.016,2.641,0.000,0.000,0.000,-222655
57.215495109558105,4035000,2.461,-9.016,2.680,0.000,0.000,0.000,-223051
57.28722405433655,4040000,2.500,-9.016,2.641,0.000,0.000,0.000,-222494
57.35918188095093,4045000,2.461,-9.016,2.680,0.000,0.000,0.000,-223077
57.43127727508545,4050000,2.461,-9.016,2.641,0.000,0.000,0.000,-223024
57.50327110290527,4055000,2.461,-9.016,2.680,0.000,0.000,0.000,-222678
57.575422048568726,4060000,2.461,-9.016,2.641,0.000,0.000,0.000,-222782
57.6469452381134,4065000,2.426,-9.016,2.680,0.000,0.000,0.000,-222869
57.718738079071045,4070000,2.426,-9.016,2.680,0.000,0.000,0.000,-223329
57.78891205787659,4075000,2.461,-9.020,2.715,0.000,0.000,0.000,-222435
57.857243061065674,4080000,2.461,-9.016,2.680,0.000,0.000,0.000,-221857
57.93028998374939,4085000,2.500,-9.055,2.641,0.000,0.000,0.000,-223385
58.00169897079468,4090000,2.461,-9.016,2.680,0.000,0.000,0.000,-223109
58.07184815406799,4095000,2.426,-9.016,2.641,0.000,0.000,0.000,-222077
58.148030042648315,4100000,2.426,-9.016,2.641,0.000,0.000,0.000,-223125
58.22040510177612,4105000,2.461,-9.016,2.680,0.000,0.000,0.000,-222384
58.291537046432495,4110000,2.461,-9.016,2.641,0.000,0.000,0.000,-222652
58.36239814758301,4115000,2.426,-9.059,2.715,0.000,0.000,0.000,-223357
58.43385887145996,4120000,2.426,-9.055,2.680,0.000,0.000,0.000,-222758
58.508968114852905,4125000,2.426,-9.016,2.680,0.000,0.000,0.000,-222445
58.580240964889526,4130000,2.461,-9.016,2.641,0.000,0.000,0.000,-223149
58.65199589729309,4135000,2.461,-9.055,2.680,0.000,0.000,0.000,-222233
58.7254159450531,4140000,2.461,-9.020,2.715,0.000,0.000,0.000,-223534
58.79525113105774,4145000,2.461,-9.016,2.680,0.000,0.000,0.000,-222880
58.86728620529175,4150000,2.426,-9.016,2.680,0.000,0.000,0.000,-222927
58.9400839805603,4155000,2.461,-9.020,2.715,0.000,0.000,0.000,-222682
59.01190400123596,4160000,2.461,-9.055,2.680,0.000,0.000,0.000,-223473
59.0832941532135,4165000,2.426,-9.059,2.715,0.000,0.000,0.000,-223072
59.15722990036011,4170000,2.426,-9.055,2.680,0.000,0.000,0.000,-222408
59.2307391166687,4175000,2.461,-9.055,2.641,0.000,0.000,0.000,-222580
59.30054998397827,4180000,2.426,-9.016,2.641,0.000,0.000,0.000,-222979
59.372596979141235,4185000,2.461,-9.016,2.680,0.000,0.000,0.000,-222547
59.44703006744385,4190000,2.461,-9.016,2.680,0.000,0.000,0.000,-223413
59.51725196838379,4195000,2.461,-9.055,2.641,0.000,0.000,0.000,-222816
59.59125113487244,4200000,2.461,-9.016,2.680,0.000,0.000,0.000,-222085
59.665318965911865,4205000,2.461,-9.016,2.680,0.000,0.000,0.000,-222712
59.73663902282715,4210000,2.426,-9.016,2.680,0.000,0.000,0.000,-222750
59.80369997024536,4215000,2.461,-9.020,2.715,0.000,0.000,0.000,-222823
59.878010988235474,4220000,2.461,-9.016,2.680,0.000,0.000,0.000,-223306
59.95037388801575,4225000,2.461,-9.055,2.641,0.000,0.000,0.000,-222565
60.02108812332153,4230000,2.461,-9.016,2.680,0.000,0.000,0.000,-222701
