pc_time_s,teensy_time_us,ax,ay,az,gx,gy,gz,load_raw
0.0006279945373535156,750641309,3.074,-9.211,0.227,0.000,0.000,0.000,-220745
0.0007328987121582031,750645529,3.074,-9.211,0.227,0.000,0.000,0.000,-221457
0.0008409023284912109,750649749,3.074,-9.211,0.227,0.000,0.000,0.000,-221105
0.0009379386901855469,750653969,3.113,-9.172,0.227,0.000,0.000,0.000,-222083
0.0010390281677246094,750656190,3.113,-9.172,0.227,0.000,0.000,0.000,-221380
0.0011341571807861328,750661410,3.113,-9.172,0.227,0.000,0.000,0.000,-221628
0.0012290477752685547,750665631,3.113,-9.172,0.227,0.000,0.000,0.000,-221059
0.0013360977172851562,750668852,3.113,-9.172,0.227,0.000,0.000,0.000,-221503
0.0014331340789794922,750673073,3.113,-9.172,0.227,0.000,0.000,0.000,-221796
0.0015349388122558594,750678294,3.113,-9.172,0.227,0.000,0.000,0.000,-221483
0.0016298294067382812,750681514,3.152,-9.215,0.187,0.000,0.000,0.000,-221439
0.0017290115356445312,750686734,3.152,-9.215,0.187,0.000,0.000,0.000,-221264
0.0018301010131835938,750690954,3.152,-9.215,0.187,0.000,0.000,0.000,-222086
0.0019268989562988281,750695174,3.152,-9.215,0.187,0.000,0.000,0.000,-221435
0.0020580291748046875,750699394,3.152,-9.215,0.187,0.000,0.000,0.000,-221687
0.0021550655364990234,750703614,3.152,-9.215,0.187,0.000,0.000,0.000,-220720
0.002257823944091797,750707834,3.152,-9.211,0.266,0.000,0.000,0.000,-221885
0.0023539066314697266,750710054,3.152,-9.211,0.266,0.000,0.000,0.000,-221588
0.0024509429931640625,750716275,3.152,-9.211,0.266,0.000,0.000,0.000,-221457
0.002552032470703125,750720496,3.152,-9.211,0.266,0.000,0.000,0.000,-220990
0.0026481151580810547,750724716,3.152,-9.211,0.266,0.000,0.000,0.000,-221748
0.002748250961303711,750729936,3.152,-9.211,0.266,0.000,0.000,0.000,-221461
0.0028460025787353516,750734157,3.152,-9.211,0.266,0.000,0.000,0.000,-221563
0.0029418468475341797,750738377,3.113,-9.215,0.187,0.000,0.000,0.000,-221728
0.0030431747436523438,750741597,3.113,-9.215,0.187,0.000,0.000,0.000,-221036
0.003139019012451172,750746817,3.113,-9.215,0.187,0.000,0.000,0.000,-219972
0.0032410621643066406,750751037,3.113,-9.215,0.187,0.000,0.000,0.000,-221057
0.0033369064331054688,750756257,3.113,-9.215,0.187,0.000,0.000,0.000,-221961
0.003434896469116211,750760477,3.113,-9.215,0.187,0.000,0.000,0.000,-220897
0.0035331249237060547,750763697,3.113,-9.215,0.187,0.000,0.000,0.000,-222460
0.0036301612854003906,750767918,3.113,-9.215,0.227,0.000,0.000,0.000,-221972
0.0037381649017333984,750771138,3.113,-9.215,0.227,0.000,0.000,0.000,-221829
0.0038340091705322266,750777358,3.113,-9.215,0.227,0.000,0.000,0.000,-221664
0.0039370059967041016,750781578,3.113,-9.215,0.227,0.000,0.000,0.000,-222331
0.004033088684082031,750785799,3.113,-9.215,0.227,0.000,0.000,0.000,-221726
0.004128932952880859,750790019,3.113,-9.215,0.227,0.000,0.000,0.000,-221101
0.004230976104736328,750794240,3.113,-9.215,0.227,0.000,0.000,0.000,-221444
0.0043261051177978516,750799460,3.074,-9.211,0.227,0.000,0.000,0.000,-221968
0.004427909851074219,750802680,3.074,-9.211,0.227,0.000,0.000,0.000,-221425
0.0045239925384521484,750808900,3.074,-9.211,0.227,0.000,0.000,0.000,-220564
0.004621028900146484,750813120,3.074,-9.211,0.227,0.000,0.000,0.000,-221375
0.004721879959106445,750818341,3.074,-9.211,0.227,0.000,0.000,0.000,-220736
0.00481724739074707,750822561,3.074,-9.211,0.227,0.000,0.000,0.000,-221887
0.004920005798339844,750826782,3.152,-9.215,0.227,0.000,0.000,0.000,-221135
0.0050160884857177734,750830002,3.152,-9.215,0.227,0.000,0.000,0.000,-220781
0.00511622428894043,750836222,3.152,-9.215,0.227,0.000,0.000,0.000,-221121
0.0052149295806884766,750840443,3.152,-9.215,0.227,0.000,0.000,0.000,-221965
0.0053119659423828125,750844663,3.152,-9.215,0.227,0.000,0.000,0.000,-221594
0.005414247512817383,750848883,3.152,-9.215,0.227,0.000,0.000,0.000,-221551
0.005510807037353516,750854104,3.152,-9.215,0.227,0.000,0.000,0.000,-221481
0.00561213493347168,750858325,3.152,-9.250,0.266,0.000,0.000,0.000,-221308
0.005711078643798828,750861545,3.152,-9.250,0.266,0.000,0.000,0.000,-220999
0.0058100223541259766,750866765,3.152,-9.250,0.266,0.000,0.000,0.000,-221625
0.005911111831665039,750870985,3.152,-9.250,0.266,0.000,0.000,0.000,-221601
0.006008148193359375,750875208,3.152,-9.250,0.266,0.000,0.000,0.000,-221831
0.006108999252319336,750879428,3.152,-9.250,0.266,0.000,0.000,0.000,-222122
0.006214141845703125,750884648,3.152,-9.250,0.266,0.000,0.000,0.000,-221250
0.006311178207397461,750888868,3.152,-9.215,0.227,0.000,0.000,0.000,-221110
0.006412029266357422,750891088,3.152,-9.215,0.227,0.000,0.000,0.000,-221452
0.006509065628051758,750897308,3.152,-9.215,0.227,0.000,0.000,0.000,-221096
0.006609201431274414,750901529,3.152,-9.215,0.227,0.000,0.000,0.000,-221195
0.006713151931762695,750905749,3.152,-9.215,0.227,0.000,0.000,0.000,-221379
0.0068149566650390625,750909969,3.152,-9.215,0.227,0.000,0.000,0.000,-221871
0.0069119930267333984,750914189,3.152,-9.215,0.227,0.000,0.000,0.000,-221650
0.007009983062744141,750919409,3.152,-9.176,0.266,0.000,0.000,0.000,-221505
0.007148027420043945,750922629,3.152,-9.176,0.266,0.000,0.000,0.000,-221032
0.007247209548950195,750928849,3.152,-9.176,0.266,0.000,0.000,0.000,-221159
0.007349967956542969,750933069,3.152,-9.176,0.266,0.000,0.000,0.000,-221509
0.007459163665771484,750937290,3.152,-9.176,0.266,0.000,0.000,0.000,-221191
0.0075571537017822266,750941510,3.152,-9.176,0.266,0.000,0.000,0.000,-222207
0.0076558589935302734,750946731,3.152,-9.176,0.266,0.000,0.000,0.000,-222095
0.007750988006591797,750950952,3.113,-9.254,0.227,0.000,0.000,0.000,-221398
0.007848978042602539,750954172,3.113,-9.254,0.227,0.000,0.000,0.000,-221506
0.007942914962768555,750960392,3.113,-9.254,0.227,0.000,0.000,0.000,-222096
0.008041858673095703,750966612,3.113,-9.254,0.227,0.000,0.000,0.000,-219982
0.00813603401184082,750970832,3.113,-9.254,0.227,0.000,0.000,0.000,-221596
0.008230209350585938,750976052,3.113,-9.254,0.227,0.000,0.000,0.000,-221246
0.008328914642333984,750980272,3.113,-9.254,0.227,0.000,0.000,0.000,-221147
0.008422136306762695,750984492,3.113,-9.250,0.266,0.000,0.000,0.000,-221885
0.008523941040039062,750987713,3.113,-9.250,0.266,0.000,0.000,0.000,-221657
0.008615970611572266,750992933,3.113,-9.250,0.266,0.000,0.000,0.000,-221610
0.008710861206054688,750997154,3.113,-9.250,0.266,0.000,0.000,0.000,-222140
0.008805036544799805,751001374,3.113,-9.250,0.266,0.000,0.000,0.000,-221767
0.008898019790649414,751005594,3.113,-9.250,0.266,0.000,0.000,0.000,-220947
0.00899505615234375,751009814,3.113,-9.250,0.266,0.000,0.000,0.000,-220913
0.009086847305297852,751014034,3.074,-9.215,0.266,0.000,0.000,0.000,-221213
0.009182929992675781,751016254,3.074,-9.215,0.266,0.000,0.000,0.000,-221368
0.009275197982788086,751021475,3.074,-9.215,0.266,0.000,0.000,0.000,-221654
0.009366035461425781,751025695,3.074,-9.215,0.266,0.000,0.000,0.000,-221325
0.009464025497436523,751028916,3.074,-9.215,0.266,0.000,0.000,0.000,-221690
0.009557962417602539,751033136,3.074,-9.215,0.266,0.000,0.000,0.000,-221527
0.009660959243774414,751037356,3.074,-9.215,0.266,0.000,0.000,0.000,-221734
0.009754180908203125,751041577,3.113,-9.215,0.227,0.000,0.000,0.000,-221360
0.009850025177001953,751044798,3.113,-9.215,0.227,0.000,0.000,0.000,-221311
0.009945154190063477,751050018,3.113,-9.215,0.227,0.000,0.000,0.000,-221007
0.010036945343017578,751054239,3.113,-9.215,0.227,0.000,0.000,0.000,-221036
0.010133981704711914,751059460,3.113,-9.215,0.227,0.000,0.000,0.000,-221995
0.010226011276245117,751064680,3.113,-9.215,0.227,0.000,0.000,0.000,-220159
0.010321855545043945,751068900,3.113,-9.215,0.227,0.000,0.000,0.000,-221099
0.010415077209472656,751073121,3.152,-9.215,0.227,0.000,0.000,0.000,-221499
0.01050710678100586,751076342,3.152,-9.215,0.227,0.000,0.000,0.000,-221632
0.010608196258544922,751082547,3.152,-9.215,0.227,0.000,0.000,0.000,-221632
0.010699987411499023,751086767,3.152,-9.215,0.227,0.000,0.000,0.000,-221301
0.010797977447509766,751090988,3.152,-9.215,0.227,0.000,0.000,0.000,-221890
0.010890960693359375,751096208,3.152,-9.215,0.227,0.000,0.000,0.000,-221400
0.010983943939208984,751100429,3.152,-9.215,0.227,0.000,0.000,0.000,-221194
0.011150121688842773,751104650,3.152,-9.215,0.227,0.000,0.000,0.000,-221252
0.011245965957641602,751107870,3.152,-9.215,0.227,0.000,0.000,0.000,-221016
0.011343002319335938,751113090,3.152,-9.215,0.227,0.000,0.000,0.000,-220548
0.01143503189086914,751117310,3.152,-9.215,0.227,0.000,0.000,0.000,-221171
0.011533021926879883,751121530,3.152,-9.215,0.227,0.000,0.000,0.000,-222287
0.011939048767089844,751125750,3.152,-9.215,0.227,0.000,0.000,0.000,-221411
0.012095928192138672,751129970,3.152,-9.215,0.227,0.000,0.000,0.000,-222343
0.012195110321044922,751133191,3.152,-9.215,0.227,0.000,0.000,0.000,-221373
0.012286901473999023,751136412,3.152,-9.215,0.227,0.000,0.000,0.000,-220961
0.012385129928588867,751141632,3.152,-9.215,0.227,0.000,0.000,0.000,-221593
0.012476205825805664,751145853,3.152,-9.215,0.227,0.000,0.000,0.000,-221117
0.012569189071655273,751149073,3.152,-9.215,0.227,0.000,0.000,0.000,-221113
0.012665987014770508,751153294,3.152,-9.215,0.227,0.000,0.000,0.000,-220896
0.012758016586303711,751157515,3.152,-9.215,0.227,0.000,0.000,0.000,-221148
0.01285696029663086,751161735,3.152,-9.215,0.227,0.000,0.000,0.000,-221236
0.012949943542480469,751163955,3.152,-9.215,0.227,0.000,0.000,0.000,-221242
0.013046026229858398,751169175,3.152,-9.215,0.227,0.000,0.000,0.000,-220299
0.01314091682434082,751173395,3.152,-9.215,0.227,0.000,0.000,0.000,-221274
0.013233184814453125,751177615,3.152,-9.215,0.227,0.000,0.000,0.000,-221788
0.013331890106201172,751181835,3.152,-9.215,0.227,0.000,0.000,0.000,-221287
0.013424158096313477,751187056,3.152,-9.215,0.227,0.000,0.000,0.000,-221219
0.013525009155273438,751191276,3.113,-9.172,0.227,0.000,0.000,0.000,-221392
0.01361703872680664,751194497,3.113,-9.172,0.227,0.000,0.000,0.000,-221016
0.013710975646972656,751200717,3.113,-9.172,0.227,0.000,0.000,0.000,-221447
0.013808012008666992,751204937,3.113,-9.172,0.227,0.000,0.000,0.000,-221112
0.013904094696044922,751208158,3.113,-9.172,0.227,0.000,0.000,0.000,-221749
0.014000177383422852,751212379,3.113,-9.172,0.227,0.000,0.000,0.000,-221570
0.014091968536376953,751216599,3.113,-9.172,0.227,0.000,0.000,0.000,-222090
0.014184951782226562,751220819,3.113,-9.215,0.227,0.000,0.000,0.000,-221874
0.014278888702392578,751224039,3.113,-9.215,0.227,0.000,0.000,0.000,-222179
0.014372110366821289,751231260,3.113,-9.215,0.227,0.000,0.000,0.000,-221590
0.014468193054199219,751236481,3.113,-9.215,0.227,0.000,0.000,0.000,-221065
0.014560937881469727,751239701,3.113,-9.215,0.227,0.000,0.000,0.000,-221320
0.014666080474853516,751241922,3.113,-9.215,0.227,0.000,0.000,0.000,-221288
0.014761924743652344,751247142,3.113,-9.215,0.227,0.000,0.000,0.000,-221186
0.01485300064086914,751251362,3.113,-9.215,0.227,0.000,0.000,0.000,-221708
0.01494908332824707,751255584,3.113,-9.215,0.227,0.000,0.000,0.000,-221735
0.015041112899780273,751259804,3.113,-9.215,0.227,0.000,0.000,0.000,-221166
0.015136003494262695,751264024,3.113,-9.215,0.227,0.000,0.000,0.000,-221073
0.015228033065795898,751269244,3.113,-9.250,0.266,0.000,0.000,0.000,-221495
0.01532602310180664,751271464,3.113,-9.250,0.266,0.000,0.000,0.000,-221820
0.015417098999023438,751276684,3.113,-9.250,0.266,0.000,0.000,0.000,-220982
0.015506982803344727,751280904,3.113,-9.250,0.266,0.000,0.000,0.000,-221459
0.01559901237487793,751285125,3.113,-9.250,0.266,0.000,0.000,0.000,-220371
0.01568603515625,751289345,3.113,-9.250,0.266,0.000,0.000,0.000,-221673
0.015777111053466797,751293566,3.113,-9.250,0.266,0.000,0.000,0.000,-222040
0.015864133834838867,751297787,3.152,-9.215,0.227,0.000,0.000,0.000,-222209
0.015954017639160156,751301008,3.152,-9.215,0.227,0.000,0.000,0.000,-221485
0.01604294776916504,751306228,3.152,-9.215,0.227,0.000,0.000,0.000,-221545
0.01612997055053711,751310448,3.152,-9.215,0.227,0.000,0.000,0.000,-221379
0.016222000122070312,751315669,3.152,-9.215,0.227,0.000,0.000,0.000,-221472
0.016309022903442383,751319889,3.113,-9.254,0.227,0.000,0.000,0.000,-221355
0.01640009880065918,751322109,3.113,-9.254,0.227,0.000,0.000,0.000,-221670
0.01648712158203125,751326329,3.113,-9.254,0.227,0.000,0.000,0.000,-221562
0.01657390594482422,751330549,3.113,-9.254,0.227,0.000,0.000,0.000,-220933
0.016669034957885742,751334770,3.113,-9.254,0.227,0.000,0.000,0.000,-221320
0.016754865646362305,751338990,3.113,-9.254,0.227,0.000,0.000,0.000,-221265
0.016846179962158203,751343211,3.113,-9.254,0.227,0.000,0.000,0.000,-222175
0.016932010650634766,751348432,3.113,-9.254,0.227,0.000,0.000,0.000,-220785
0.017021894454956055,751351652,3.113,-9.254,0.227,0.000,0.000,0.000,-221216
0.01711106300354004,751357872,3.113,-9.254,0.227,0.000,0.000,0.000,-221920
0.017197132110595703,751362092,3.113,-9.254,0.227,0.000,0.000,0.000,-220140
0.0172879695892334,751366313,3.113,-9.254,0.227,0.000,0.000,0.000,-220961
0.01737499237060547,751370533,3.113,-9.254,0.227,0.000,0.000,0.000,-221043
0.01746821403503418,751375754,3.113,-9.254,0.227,0.000,0.000,0.000,-221734
0.017555952072143555,751378974,3.152,-9.211,0.266,0.000,0.000,0.000,-221591
0.01764392852783203,751381195,3.152,-9.211,0.266,0.000,0.000,0.000,-220852
0.017735004425048828,751386415,3.152,-9.211,0.266,0.000,0.000,0.000,-220861
0.0178220272064209,751390635,3.152,-9.211,0.266,0.000,0.000,0.000,-221032
0.017913103103637695,751395856,3.152,-9.211,0.266,0.000,0.000,0.000,-221311
0.018000125885009766,751399077,3.152,-9.211,0.266,0.000,0.000,0.000,-222574
0.018090009689331055,751403297,3.152,-9.211,0.266,0.000,0.000,0.000,-221473
0.01817798614501953,751406517,3.113,-9.215,0.227,0.000,0.000,0.000,-222065
0.0182650089263916,751408737,3.113,-9.215,0.227,0.000,0.000,0.000,-221046
0.018357038497924805,751412958,3.113,-9.215,0.227,0.000,0.000,0.000,-221048
0.018444061279296875,751417179,3.113,-9.215,0.227,0.000,0.000,0.000,-220943
0.018535852432250977,751421399,3.113,-9.215,0.227,0.000,0.000,0.000,-221355
0.018622875213623047,751426620,3.113,-9.215,0.227,0.000,0.000,0.000,-221762
0.018709897994995117,751430840,3.113,-9.215,0.227,0.000,0.000,0.000,-220954
0.018800020217895508,751435060,3.152,-9.254,0.227,0.000,0.000,0.000,-221268
0.018886804580688477,751437281,3.152,-9.254,0.227,0.000,0.000,0.000,-221368
0.018976926803588867,751442502,3.152,-9.254,0.227,0.000,0.000,0.000,-221307
0.019063949584960938,751447722,3.152,-9.254,0.227,0.000,0.000,0.000,-220983
0.019153118133544922,751451942,3.152,-9.254,0.227,0.000,0.000,0.000,-220470
0.01923990249633789,751457162,3.152,-9.254,0.227,0.000,0.000,0.000,-221347
0.019325971603393555,751462382,3.152,-9.254,0.227,0.000,0.000,0.000,-221447
0.01941704750061035,751466603,3.152,-9.215,0.187,0.000,0.000,0.000,-221377
0.019504070281982422,751468824,3.152,-9.215,0.187,0.000,0.000,0.000,-221215
0.019594907760620117,751474044,3.152,-9.215,0.187,0.000,0.000,0.000,-222024
0.019681930541992188,751478249,3.152,-9.215,0.187,0.000,0.000,0.000,-222024
0.01976799964904785,751481469,3.152,-9.215,0.187,0.000,0.000,0.000,-221330
0.01986098289489746,751487690,3.152,-9.215,0.187,0.000,0.000,0.000,-221837
0.01994800567626953,751491911,3.152,-9.215,0.187,0.000,0.000,0.000,-222094
0.020038843154907227,751497131,3.113,-9.215,0.227,0.000,0.000,0.000,-220834
0.020125865936279297,751499351,3.113,-9.215,0.227,0.000,0.000,0.000,-221576
0.0202181339263916,751503571,3.113,-9.215,0.227,0.000,0.000,0.000,-221831
0.020304203033447266,751507791,3.113,-9.215,0.227,0.000,0.000,0.000,-221306
0.02039194107055664,751511012,3.113,-9.215,0.227,0.000,0.000,0.000,-221703
0.020483970642089844,751517232,3.113,-9.215,0.227,0.000,0.000,0.000,-221159
0.020570039749145508,751521452,3.113,-9.215,0.227,0.000,0.000,0.000,-221166
0.020660877227783203,751526673,3.113,-9.215,0.227,0.000,0.000,0.000,-221860
0.020748138427734375,751528893,3.113,-9.215,0.227,0.000,0.000,0.000,-221633
0.020833969116210938,751533113,3.113,-9.215,0.227,0.000,0.000,0.000,-221231
0.020926952362060547,751537333,3.113,-9.215,0.227,0.000,0.000,0.000,-222182
0.02101302146911621,751541553,3.113,-9.215,0.227,0.000,0.000,0.000,-221453
0.021106958389282227,751545773,3.113,-9.215,0.227,0.000,0.000,0.000,-220914
0.02119302749633789,751550993,3.113,-9.215,0.227,0.000,0.000,0.000,-222012
0.02130293846130371,751556214,3.191,-9.211,0.227,0.000,0.000,0.000,-221646
0.021392107009887695,751558434,3.191,-9.211,0.227,0.000,0.000,0.000,-221866
0.021481037139892578,751562654,3.191,-9.211,0.227,0.000,0.000,0.000,-221518
0.02157306671142578,751566874,3.191,-9.211,0.227,0.000,0.000,0.000,-220838
0.02166008949279785,751572094,3.191,-9.211,0.227,0.000,0.000,0.000,-222575
0.021754026412963867,751577314,3.191,-9.211,0.227,0.000,0.000,0.000,-221540
0.021842002868652344,751582534,3.191,-9.211,0.227,0.000,0.000,0.000,-221585
0.021930932998657227,751586755,3.191,-9.250,0.227,0.000,0.000,0.000,-221350
0.022021055221557617,751588975,3.191,-9.250,0.227,0.000,0.000,0.000,-222451
0.022110939025878906,751594196,3.191,-9.250,0.227,0.000,0.000,0.000,-222361
0.022202014923095703,751598416,3.191,-9.250,0.227,0.000,0.000,0.000,-221505
0.02228999137878418,751601637,3.191,-9.250,0.227,0.000,0.000,0.000,-221138
0.022547006607055664,751605857,3.191,-9.250,0.227,0.000,0.000,0.000,-221622
0.02266693115234375,751610078,3.191,-9.250,0.227,0.000,0.000,0.000,-221827
0.022755146026611328,751614298,3.113,-9.215,0.227,0.000,0.000,0.000,-221597
0.022845983505249023,751616518,3.113,-9.215,0.227,0.000,0.000,0.000,-221819
0.0229339599609375,751621738,3.113,-9.215,0.227,0.000,0.000,0.000,-221276
0.023025989532470703,751625958,3.113,-9.215,0.227,0.000,0.000,0.000,-221862
0.023113012313842773,751629179,3.113,-9.215,0.227,0.000,0.000,0.000,-221194
0.023203134536743164,751633400,3.113,-9.215,0.227,0.000,0.000,0.000,-221295
0.023294925689697266,751637620,3.113,-9.215,0.227,0.000,0.000,0.000,-221925
0.023383140563964844,751641840,3.152,-9.215,0.227,0.000,0.000,0.000,-221230
0.02347397804260254,751644060,3.152,-9.215,0.227,0.000,0.000,0.000,-221932
0.023558855056762695,751649281,3.152,-9.215,0.227,0.000,0.000,0.000,-221522
0.02365589141845703,751653502,3.152,-9.215,0.227,0.000,0.000,0.000,-220836
0.0237429141998291,751657722,3.152,-9.215,0.227,0.000,0.000,0.000,-221564
0.023835182189941406,751662943,3.152,-9.215,0.227,0.000,0.000,0.000,-222029
0.0239260196685791,751667164,3.152,-9.215,0.227,0.000,0.000,0.000,-221253
0.024010896682739258,751671384,3.113,-9.250,0.266,0.000,0.000,0.000,-221501
0.024103879928588867,751674604,3.113,-9.250,0.266,0.000,0.000,0.000,-221464
0.02418804168701172,751680824,3.113,-9.250,0.266,0.000,0.000,0.000,-221177
0.024281024932861328,751686045,3.113,-9.250,0.266,0.000,0.000,0.000,-221906
0.024364948272705078,751690266,3.113,-9.250,0.266,0.000,0.000,0.000,-221590
0.024450063705444336,751695487,3.113,-9.250,0.266,0.000,0.000,0.000,-221553
0.024543046951293945,751699708,3.113,-9.250,0.266,0.000,0.000,0.000,-220628
0.0246279239654541,751703928,3.152,-9.215,0.227,0.000,0.000,0.000,-221898
0.02472400665283203,751707148,3.152,-9.215,0.227,0.000,0.000,0.000,-222007
0.02480792999267578,751712368,3.152,-9.215,0.227,0.000,0.000,0.000,-221960
0.024892807006835938,751717588,3.152,-9.215,0.227,0.000,0.000,0.000,-221909
0.024981021881103516,751721808,3.152,-9.215,0.227,0.000,0.000,0.000,-221019
0.0250699520111084,751727029,3.152,-9.215,0.227,0.000,0.000,0.000,-221523
0.025161027908325195,751732249,3.152,-9.215,0.227,0.000,0.000,0.000,-221459
0.02524590492248535,751737469,3.074,-9.211,0.227,0.000,0.000,0.000,-221567
0.02533698081970215,751740689,3.074,-9.211,0.227,0.000,0.000,0.000,-220743
0.025425195693969727,751746909,3.074,-9.211,0.227,0.000,0.000,0.000,-222167
0.025510072708129883,751751129,3.074,-9.211,0.227,0.000,0.000,0.000,-221708
0.025603055953979492,751756349,3.074,-9.211,0.227,0.000,0.000,0.000,-221631
0.025686979293823242,751761570,3.113,-9.211,0.266,0.000,0.000,0.000,-221245
0.025779008865356445,751764790,3.113,-9.211,0.266,0.000,0.000,0.000,-221158
0.025866985321044922,751770010,3.113,-9.211,0.266,0.000,0.000,0.000,-221574
0.02595210075378418,751775230,3.113,-9.211,0.266,0.000,0.000,0.000,-221626
0.026044130325317383,751779450,3.113,-9.211,0.266,0.000,0.000,0.000,-221141
0.02612924575805664,751784670,3.113,-9.211,0.266,0.000,0.000,0.000,-220984
0.02622199058532715,751788890,3.113,-9.211,0.266,0.000,0.000,0.000,-221531
0.02630615234375,751793111,3.152,-9.250,0.266,0.000,0.000,0.000,-221640
0.026394128799438477,751796331,3.152,-9.250,0.266,0.000,0.000,0.000,-221817
0.026478052139282227,751802551,3.152,-9.250,0.266,0.000,0.000,0.000,-221322
0.026563167572021484,751806771,3.152,-9.250,0.266,0.000,0.000,0.000,-221748
0.02666497230529785,751811991,3.152,-9.250,0.266,0.000,0.000,0.000,-221927
0.0267488956451416,751817213,3.152,-9.250,0.266,0.000,0.000,0.000,-221266
0.026841163635253906,751822433,3.152,-9.250,0.266,0.000,0.000,0.000,-221752
0.026926040649414062,751826653,3.113,-9.215,0.227,0.000,0.000,0.000,-221960
0.02701115608215332,751828874,3.113,-9.215,0.227,0.000,0.000,0.000,-222209
0.027105093002319336,751834095,3.113,-9.215,0.227,0.000,0.000,0.000,-221190
0.027189970016479492,751839315,3.113,-9.215,0.227,0.000,0.000,0.000,-221079
0.0272829532623291,751843535,3.113,-9.215,0.227,0.000,0.000,0.000,-221407
0.027367115020751953,751848756,3.113,-9.215,0.227,0.000,0.000,0.000,-221291
0.02745795249938965,751853976,3.113,-9.215,0.227,0.000,0.000,0.000,-221207
0.027539968490600586,751859196,3.191,-9.215,0.266,0.000,0.000,0.000,-221179
0.027622222900390625,751861416,3.191,-9.215,0.266,0.000,0.000,0.000,-221011
0.02771615982055664,751866637,3.191,-9.215,0.266,0.000,0.000,0.000,-220741
0.027799129486083984,751870858,3.191,-9.215,0.266,0.000,0.000,0.000,-221276
0.027889251708984375,751875078,3.074,-9.211,0.227,0.000,0.000,0.000,-221658
0.02797102928161621,751877298,3.074,-9.211,0.227,0.000,0.000,0.000,-221732
0.028053998947143555,751882518,3.074,-9.211,0.227,0.000,0.000,0.000,-221269
0.02814316749572754,751886738,3.074,-9.211,0.227,0.000,0.000,0.000,-221228
0.028226137161254883,751890958,3.074,-9.211,0.227,0.000,0.000,0.000,-222028
0.028316259384155273,751896179,3.074,-9.211,0.227,0.000,0.000,0.000,-221839
0.028398990631103516,751901399,3.074,-9.211,0.227,0.000,0.000,0.000,-221921
0.028488874435424805,751905620,3.113,-9.254,0.227,0.000,0.000,0.000,-220975
0.02857208251953125,751908841,3.113,-9.254,0.227,0.000,0.000,0.000,-221461
0.028657913208007812,751914061,3.113,-9.254,0.227,0.000,0.000,0.000,-221545
0.028748035430908203,751918281,3.113,-9.254,0.227,0.000,0.000,0.000,-221104
0.028831005096435547,751922501,3.113,-9.254,0.227,0.000,0.000,0.000,-221578
0.02891993522644043,751926707,3.113,-9.254,0.227,0.000,0.000,0.000,-221578
0.029001951217651367,751930927,3.113,-9.254,0.227,0.000,0.000,0.000,-221140
0.02909111976623535,751936147,3.152,-9.254,0.227,0.000,0.000,0.000,-221010
0.029174089431762695,751939367,3.152,-9.254,0.227,0.000,0.000,0.000,-221642
0.02925586700439453,751944588,3.152,-9.254,0.227,0.000,0.000,0.000,-221286
0.029361963272094727,751948808,3.152,-9.254,0.227,0.000,0.000,0.000,-221253
0.029445171356201172,751952029,3.152,-9.254,0.227,0.000,0.000,0.000,-222040
0.02953505516052246,751957249,3.152,-9.254,0.227,0.000,0.000,0.000,-221810
0.0296170711517334,751961470,3.152,-9.254,0.227,0.000,0.000,0.000,-221368
0.029710054397583008,751966690,3.113,-9.254,0.227,0.000,0.000,0.000,-221648
0.029796123504638672,751969910,3.113,-9.254,0.227,0.000,0.000,0.000,-220344
0.029877901077270508,751977130,3.113,-9.254,0.227,0.000,0.000,0.000,-221570
0.029969215393066406,751981351,3.113,-9.254,0.227,0.000,0.000,0.000,-222169
0.030050992965698242,751985556,3.113,-9.254,0.227,0.000,0.000,0.000,-222169
0.03014087677001953,751990776,3.113,-9.254,0.227,0.000,0.000,0.000,-221466
0.03022313117980957,751997997,3.113,-9.254,0.227,0.000,0.000,0.000,-222072
0.030304908752441406,752002218,3.113,-9.215,0.227,0.000,0.000,0.000,-221979
0.030396223068237305,752004438,3.113,-9.215,0.227,0.000,0.000,0.000,-221903
0.03047800064086914,752008658,3.113,-9.215,0.227,0.000,0.000,0.000,-221920
0.03056788444519043,752012878,3.113,-9.215,0.227,0.000,0.000,0.000,-221784
0.03065013885498047,752017099,3.113,-9.215,0.227,0.000,0.000,0.000,-221975
0.030731916427612305,752021319,3.113,-9.215,0.227,0.000,0.000,0.000,-221674
0.030822038650512695,752025540,3.113,-9.215,0.227,0.000,0.000,0.000,-221809
0.030910015106201172,752029760,3.113,-9.215,0.227,0.000,0.000,0.000,-220759
0.03101205825805664,752031981,3.113,-9.215,0.227,0.000,0.000,0.000,-221459
0.03110504150390625,752037204,3.113,-9.215,0.227,0.000,0.000,0.000,-221414
0.031196117401123047,752041425,3.113,-9.215,0.227,0.000,0.000,0.000,-221209
0.03128194808959961,752044646,3.113,-9.215,0.227,0.000,0.000,0.000,-220910
0.031365156173706055,752049867,3.113,-9.215,0.227,0.000,0.000,0.000,-221038
0.031455039978027344,752055088,3.113,-9.215,0.227,0.000,0.000,0.000,-222329
0.0315399169921875,752059308,3.152,-9.211,0.266,0.000,0.000,0.000,-221103
0.031625986099243164,752061528,3.152,-9.211,0.266,0.000,0.000,0.000,-221640
0.0317082405090332,752066749,3.152,-9.211,0.266,0.000,0.000,0.000,-220384
0.031796932220458984,752070969,3.152,-9.211,0.266,0.000,0.000,0.000,-221524
0.03188300132751465,752076189,3.152,-9.211,0.266,0.000,0.000,0.000,-221893
0.031965017318725586,752080409,3.152,-9.211,0.266,0.000,0.000,0.000,-221369
0.032058000564575195,752084629,3.152,-9.211,0.266,0.000,0.000,0.000,-220534
0.03214001655578613,752089850,3.113,-9.215,0.227,0.000,0.000,0.000,-221877
0.0322260856628418,752093070,3.113,-9.215,0.227,0.000,0.000,0.000,-220613
0.03230786323547363,752099291,3.113,-9.215,0.227,0.000,0.000,0.000,-220581
0.03239083290100098,752103511,3.113,-9.215,0.227,0.000,0.000,0.000,-221623
0.032476186752319336,752107731,3.113,-9.215,0.227,0.000,0.000,0.000,-221725
0.03255915641784668,752111952,3.113,-9.215,0.227,0.000,0.000,0.000,-221507
0.03264617919921875,752117172,3.113,-9.215,0.227,0.000,0.000,0.000,-221741
0.032729148864746094,752121393,3.152,-9.250,0.266,0.000,0.000,0.000,-222257
0.032813072204589844,752124613,3.152,-9.250,0.266,0.000,0.000,0.000,-221806
0.032896995544433594,752129833,3.152,-9.250,0.266,0.000,0.000,0.000,-220977
0.03297901153564453,752135053,3.152,-9.250,0.266,0.000,0.000,0.000,-221342
0.0330660343170166,752139273,3.152,-9.250,0.266,0.000,0.000,0.000,-221175
0.03314805030822754,752143495,3.152,-9.250,0.266,0.000,0.000,0.000,-221633
0.0332338809967041,752147716,3.152,-9.250,0.266,0.000,0.000,0.000,-221845
0.03331708908081055,752151936,3.113,-9.176,0.266,0.000,0.000,0.000,-221186
0.03339695930480957,752155157,3.113,-9.176,0.266,0.000,0.000,0.000,-221352
0.05336403846740723,752160377,3.113,-9.176,0.266,0.000,0.000,0.000,-221457
0.05346512794494629,752164598,3.113,-9.176,0.266,0.000,0.000,0.000,-221028
0.05356407165527344,752168818,3.113,-9.176,0.266,0.000,0.000,0.000,-220202
0.05365705490112305,752173038,3.113,-9.176,0.266,0.000,0.000,0.000,-221306
0.0537569522857666,752178259,3.113,-9.176,0.266,0.000,0.000,0.000,-221360
0.05385112762451172,752182480,3.152,-9.176,0.266,0.000,0.000,0.000,-221225
0.05394291877746582,752185700,3.152,-9.176,0.266,0.000,0.000,0.000,-220877
0.054064035415649414,752191920,3.152,-9.176,0.266,0.000,0.000,0.000,-221554
0.05415606498718262,752197141,3.152,-9.176,0.266,0.000,0.000,0.000,-221116
0.05425882339477539,752201361,3.152,-9.176,0.266,0.000,0.000,0.000,-221221
0.054351091384887695,752206582,3.152,-9.176,0.266,0.000,0.000,0.000,-221781
0.054440975189208984,752211802,3.152,-9.176,0.266,0.000,0.000,0.000,-221363
0.05454111099243164,752217022,3.152,-9.250,0.266,0.000,0.000,0.000,-221337
0.054631948471069336,752219242,3.152,-9.250,0.266,0.000,0.000,0.000,-221713
0.054733991622924805,752224462,3.152,-9.250,0.266,0.000,0.000,0.000,-220626
0.0548250675201416,752228682,3.152,-9.250,0.266,0.000,0.000,0.000,-221764
0.05491495132446289,752232902,3.152,-9.250,0.266,0.000,0.000,0.000,-221355
0.055013179779052734,752237122,3.152,-9.250,0.266,0.000,0.000,0.000,-221229
0.0550990104675293,752241342,3.152,-9.250,0.266,0.000,0.000,0.000,-222164
0.055191993713378906,752246563,3.113,-9.254,0.187,0.000,0.000,0.000,-221465
0.05527806282043457,752248783,3.113,-9.254,0.187,0.000,0.000,0.000,-221506
0.05537009239196777,752253003,3.113,-9.254,0.187,0.000,0.000,0.000,-220650
0.055455923080444336,752257223,3.113,-9.254,0.187,0.000,0.000,0.000,-221777
0.0555419921875,752261443,3.113,-9.254,0.187,0.000,0.000,0.000,-221422
0.0556340217590332,752266664,3.113,-9.254,0.187,0.000,0.000,0.000,-221837
0.055719852447509766,752271884,3.113,-9.254,0.187,0.000,0.000,0.000,-221782
0.05581212043762207,752277104,3.152,-9.254,0.227,0.000,0.000,0.000,-221072
0.05589699745178223,752280324,3.152,-9.254,0.227,0.000,0.000,0.000,-221500
0.05598306655883789,752286544,3.152,-9.254,0.227,0.000,0.000,0.000,-221305
0.056075096130371094,752290764,3.152,-9.254,0.227,0.000,0.000,0.000,-221929
0.05615997314453125,752293985,3.152,-9.254,0.227,0.000,0.000,0.000,-221250
0.05625295639038086,752299206,3.152,-9.254,0.227,0.000,0.000,0.000,-221132
0.056337833404541016,752303426,3.152,-9.254,0.227,0.000,0.000,0.000,-221172
0.056426048278808594,752307646,3.113,-9.254,0.227,0.000,0.000,0.000,-221761
0.0565187931060791,752309866,3.113,-9.254,0.227,0.000,0.000,0.000,-220764
0.056604862213134766,752315086,3.113,-9.254,0.227,0.000,0.000,0.000,-221692
0.056707143783569336,752320307,3.113,-9.254,0.227,0.000,0.000,0.000,-221204
0.05679202079772949,752324528,3.113,-9.254,0.227,0.000,0.000,0.000,-221174
0.056884050369262695,752328748,3.113,-9.254,0.227,0.000,0.000,0.000,-221842
0.05697202682495117,752333969,3.113,-9.254,0.227,0.000,0.000,0.000,-221189
0.05706000328063965,752338190,3.152,-9.254,0.187,0.000,0.000,0.000,-221287
0.05715298652648926,752340411,3.152,-9.254,0.187,0.000,0.000,0.000,-221064
0.057440996170043945,752344632,3.152,-9.254,0.187,0.000,0.000,0.000,-220939
0.05756688117980957,752348852,3.113,-9.254,0.227,0.000,0.000,0.000,-220574
0.05765390396118164,752351073,3.113,-9.254,0.227,0.000,0.000,0.000,-220722
0.057743072509765625,752355293,3.113,-9.254,0.227,0.000,0.000,0.000,-222294
0.05783200263977051,752359514,3.113,-9.254,0.227,0.000,0.000,0.000,-221421
0.05791783332824707,752363734,3.113,-9.254,0.227,0.000,0.000,0.000,-221274
0.05801105499267578,752368955,3.113,-9.254,0.227,0.000,0.000,0.000,-220559
0.05809783935546875,752374175,3.113,-9.254,0.227,0.000,0.000,0.000,-221487
0.05818915367126465,752379395,3.152,-9.211,0.266,0.000,0.000,0.000,-220828
0.05827498435974121,752382615,3.152,-9.211,0.266,0.000,0.000,0.000,-221494
0.05836200714111328,752388836,3.152,-9.211,0.266,0.000,0.000,0.000,-220998
0.058457136154174805,752393056,3.152,-9.211,0.266,0.000,0.000,0.000,-221674
0.058544158935546875,752397277,3.152,-9.211,0.266,0.000,0.000,0.000,-221508
0.058637142181396484,752402497,3.152,-9.211,0.266,0.000,0.000,0.000,-221665
0.058724164962768555,752406719,3.152,-9.211,0.266,0.000,0.000,0.000,-221704
0.058811187744140625,752409940,3.113,-9.215,0.227,0.000,0.000,0.000,-221479
0.058904170989990234,752412160,3.113,-9.215,0.227,0.000,0.000,0.000,-221544
0.058991193771362305,752417380,3.113,-9.215,0.227,0.000,0.000,0.000,-221107
0.05908203125,752421600,3.113,-9.215,0.227,0.000,0.000,0.000,-221608
0.05917000770568848,752426821,3.113,-9.215,0.227,0.000,0.000,0.000,-221263
0.05926394462585449,752431042,3.113,-9.215,0.227,0.000,0.000,0.000,-220872
0.059350013732910156,752436262,3.113,-9.215,0.227,0.000,0.000,0.000,-221120
0.05943799018859863,752440482,3.113,-9.215,0.187,0.000,0.000,0.000,-222288
0.05953097343444824,752443703,3.113,-9.215,0.187,0.000,0.000,0.000,-221726
0.05961799621582031,752448923,3.113,-9.215,0.187,0.000,0.000,0.000,-220969
0.05972099304199219,752453143,3.113,-9.215,0.187,0.000,0.000,0.000,-221302
0.05980801582336426,752458364,3.113,-9.215,0.187,0.000,0.000,0.000,-222262
0.05989408493041992,752462585,3.113,-9.215,0.187,0.000,0.000,0.000,-221555
0.05998992919921875,752466805,3.113,-9.254,0.227,0.000,0.000,0.000,-220817
0.06007695198059082,752469025,3.113,-9.254,0.227,0.000,0.000,0.000,-221070
0.06017303466796875,752473245,3.113,-9.254,0.227,0.000,0.000,0.000,-221103
0.06026005744934082,752477466,3.113,-9.254,0.227,0.000,0.000,0.000,-222074
0.060353994369506836,752481686,3.113,-9.254,0.227,0.000,0.000,0.000,-221734
0.06044411659240723,752485906,3.113,-9.254,0.227,0.000,0.000,0.000,-221368
0.06052994728088379,752490127,3.113,-9.254,0.227,0.000,0.000,0.000,-221985
0.06062579154968262,752494347,3.113,-9.215,0.227,0.000,0.000,0.000,-221911
0.06071305274963379,752497567,3.113,-9.215,0.227,0.000,0.000,0.000,-222296
0.060827016830444336,752502787,3.113,-9.215,0.227,0.000,0.000,0.000,-221350
0.06091904640197754,752510007,3.113,-9.215,0.227,0.000,0.000,0.000,-221879
0.061003923416137695,752514227,3.113,-9.215,0.227,0.000,0.000,0.000,-221347
0.061095237731933594,752518448,3.113,-9.215,0.227,0.000,0.000,0.000,-221742
0.06118011474609375,752522668,3.113,-9.215,0.227,0.000,0.000,0.000,-221127
0.06126904487609863,752526889,3.113,-9.215,0.227,0.000,0.000,0.000,-221512
0.06135296821594238,752530109,3.113,-9.215,0.227,0.000,0.000,0.000,-221321
0.06143999099731445,752536331,3.113,-9.215,0.227,0.000,0.000,0.000,-221502
0.06152606010437012,752540551,3.113,-9.215,0.227,0.000,0.000,0.000,-221110
0.06161093711853027,752544771,3.113,-9.215,0.227,0.000,0.000,0.000,-220803
0.06171011924743652,752549991,3.113,-9.215,0.227,0.000,0.000,0.000,-221474
0.06179404258728027,752554211,3.113,-9.215,0.227,0.000,0.000,0.000,-222024
0.06188201904296875,752558432,3.074,-9.211,0.227,0.000,0.000,0.000,-221778
0.06196713447570801,752560652,3.074,-9.211,0.227,0.000,0.000,0.000,-221117
0.06205415725708008,752564873,3.074,-9.211,0.227,0.000,0.000,0.000,-221904
0.06214594841003418,752569093,3.074,-9.211,0.227,0.000,0.000,0.000,-221003
0.06223106384277344,752573314,3.074,-9.211,0.227,0.000,0.000,0.000,-220683
0.06232285499572754,752577534,3.074,-9.211,0.227,0.000,0.000,0.000,-220458
0.06240987777709961,752581754,3.074,-9.211,0.227,0.000,0.000,0.000,-221656
0.062499046325683594,752585974,3.152,-9.254,0.227,0.000,0.000,0.000,-220721
0.06259512901306152,752589194,3.152,-9.254,0.227,0.000,0.000,0.000,-221286
0.06268501281738281,752594414,3.152,-9.254,0.227,0.000,0.000,0.000,-221308
0.06277918815612793,752599635,3.152,-9.254,0.227,0.000,0.000,0.000,-221714
0.06286311149597168,752603855,3.152,-9.254,0.227,0.000,0.000,0.000,-221286
0.06295490264892578,752608076,3.152,-9.254,0.227,0.000,0.000,0.000,-221132
0.06303906440734863,752612296,3.152,-9.254,0.227,0.000,0.000,0.000,-222147
0.06312394142150879,752616516,3.152,-9.254,0.227,0.000,0.000,0.000,-221422
0.0632171630859375,752618736,3.152,-9.254,0.227,0.000,0.000,0.000,-222057
0.06330394744873047,752622957,3.152,-9.254,0.227,0.000,0.000,0.000,-221591
0.06339716911315918,752627177,3.152,-9.254,0.227,0.000,0.000,0.000,-222336
0.06348013877868652,752630398,3.152,-9.254,0.227,0.000,0.000,0.000,-221568
0.06356501579284668,752634618,3.152,-9.254,0.227,0.000,0.000,0.000,-221330
0.06366300582885742,752639838,3.113,-9.215,0.227,0.000,0.000,0.000,-222382
0.06374716758728027,752642058,3.113,-9.215,0.227,0.000,0.000,0.000,-221176
0.06383991241455078,752647279,3.113,-9.215,0.227,0.000,0.000,0.000,-221640
0.06392407417297363,752651499,3.113,-9.215,0.227,0.000,0.000,0.000,-221046
0.06401300430297852,752656720,3.113,-9.215,0.227,0.000,0.000,0.000,-221307
0.06409692764282227,752660941,3.113,-9.215,0.227,0.000,0.000,0.000,-221477
0.06418204307556152,752665162,3.113,-9.215,0.227,0.000,0.000,0.000,-221208
0.06427383422851562,752669383,3.074,-9.211,0.227,0.000,0.000,0.000,-221424
0.06435823440551758,752671604,3.074,-9.211,0.227,0.000,0.000,0.000,-220935
0.06445002555847168,752675825,3.074,-9.211,0.227,0.000,0.000,0.000,-221382
0.06453704833984375,752680046,3.074,-9.211,0.227,0.000,0.000,0.000,-221289
0.0646209716796875,752684268,3.074,-9.211,0.227,0.000,0.000,0.000,-221902
0.0647130012512207,752688489,3.074,-9.211,0.227,0.000,0.000,0.000,-221462
0.06479692459106445,752692709,3.074,-9.211,0.227,0.000,0.000,0.000,-221650
0.06488299369812012,752697929,3.074,-9.211,0.227,0.000,0.000,0.000,-221646
0.06496691703796387,752701150,3.074,-9.211,0.227,0.000,0.000,0.000,-221652
0.06506109237670898,752707371,3.074,-9.211,0.227,0.000,0.000,0.000,-222154
0.06514406204223633,752711592,3.074,-9.211,0.227,0.000,0.000,0.000,-221059
0.06522893905639648,752716813,3.074,-9.211,0.227,0.000,0.000,0.000,-221267
0.06531620025634766,752721033,3.074,-9.211,0.227,0.000,0.000,0.000,-221601
0.06540584564208984,752725254,3.113,-9.215,0.227,0.000,0.000,0.000,-222554
0.0654900074005127,752728475,3.113,-9.215,0.227,0.000,0.000,0.000,-221915
0.06557512283325195,752733695,3.113,-9.215,0.227,0.000,0.000,0.000,-221208
0.06567096710205078,752738915,3.113,-9.215,0.227,0.000,0.000,0.000,-221727
0.06575512886047363,752743135,3.113,-9.215,0.227,0.000,0.000,0.000,-222159
0.06583905220031738,752747356,3.113,-9.215,0.227,0.000,0.000,0.000,-221913
0.06592297554016113,752751577,3.113,-9.215,0.227,0.000,0.000,0.000,-221288
0.06950592994689941,752756798,3.113,-9.215,0.227,0.000,0.000,0.000,-221712
0.08516502380371094,752760018,3.113,-9.215,0.227,0.000,0.000,0.000,-221081
0.08527803421020508,752765239,3.113,-9.215,0.227,0.000,0.000,0.000,-220805
0.08537101745605469,752771459,3.113,-9.215,0.227,0.000,0.000,0.000,-221918
0.08941793441772461,752775680,3.113,-9.215,0.227,0.000,0.000,0.000,-221770
0.09357786178588867,752780901,3.113,-9.215,0.227,0.000,0.000,0.000,-221136
0.09882283210754395,752785122,3.113,-9.215,0.227,0.000,0.000,0.000,-221385
0.10303211212158203,752788343,3.152,-9.215,0.227,0.000,0.000,0.000,-221702
0.12733006477355957,752791564,3.152,-9.215,0.227,0.000,0.000,0.000,-221729
0.12745404243469238,752797785,3.152,-9.215,0.227,0.000,0.000,0.000,-220876
0.1275639533996582,752802005,3.152,-9.215,0.227,0.000,0.000,0.000,-221915
0.12767314910888672,752806225,3.152,-9.215,0.227,0.000,0.000,0.000,-221366
0.12778210639953613,752810431,3.152,-9.215,0.227,0.000,0.000,0.000,-221366
0.12834811210632324,752815651,3.152,-9.215,0.227,0.000,0.000,0.000,-220951
0.13357305526733398,752819874,3.113,-9.215,0.187,0.000,0.000,0.000,-221070
0.1621689796447754,752823095,3.113,-9.215,0.187,0.000,0.000,0.000,-221567
0.16231393814086914,752829316,3.113,-9.215,0.187,0.000,0.000,0.000,-220582
0.1624460220336914,752833536,3.113,-9.215,0.187,0.000,0.000,0.000,-220596
0.16258001327514648,752837757,3.113,-9.215,0.187,0.000,0.000,0.000,-221235
0.16271305084228516,752842978,3.113,-9.215,0.187,0.000,0.000,0.000,-220825
0.16284418106079102,752847199,3.113,-9.215,0.187,0.000,0.000,0.000,-221070
0.1650559902191162,752851419,3.113,-9.254,0.227,0.000,0.000,0.000,-220881
0.16936492919921875,752854639,3.113,-9.254,0.227,0.000,0.000,0.000,-221250
0.19019699096679688,752860860,3.113,-9.254,0.227,0.000,0.000,0.000,-222130
0.190352201461792,752865080,3.113,-9.254,0.227,0.000,0.000,0.000,-221359
0.1904890537261963,752870301,3.113,-9.254,0.227,0.000,0.000,0.000,-220609
0.19062185287475586,752874522,3.113,-9.254,0.227,0.000,0.000,0.000,-221187
0.19245409965515137,752879743,3.113,-9.254,0.227,0.000,0.000,0.000,-221109
0.1976180076599121,752883964,3.113,-9.215,0.227,0.000,0.000,0.000,-221179
0.2018589973449707,752887185,3.113,-9.215,0.227,0.000,0.000,0.000,-222076
0.21806001663208008,752892405,3.113,-9.215,0.227,0.000,0.000,0.000,-221540
0.21825313568115234,752897625,3.113,-9.215,0.227,0.000,0.000,0.000,-221282
0.21840906143188477,752900846,3.113,-9.215,0.227,0.000,0.000,0.000,-220773
0.21876192092895508,752905067,3.113,-9.215,0.227,0.000,0.000,0.000,-221207
0.2230079174041748,752909288,3.113,-9.215,0.227,0.000,0.000,0.000,-221508
0.22724413871765137,752914509,3.113,-9.254,0.227,0.000,0.000,0.000,-221262
0.23244309425354004,752917729,3.113,-9.254,0.227,0.000,0.000,0.000,-220546
0.23566699028015137,752923950,3.113,-9.254,0.227,0.000,0.000,0.000,-221080
0.2598550319671631,752928170,3.113,-9.254,0.227,0.000,0.000,0.000,-221493
0.26006507873535156,752932391,3.113,-9.254,0.227,0.000,0.000,0.000,-221299
0.26024699211120605,752937612,3.113,-9.254,0.227,0.000,0.000,0.000,-221713
0.26042604446411133,752941833,3.113,-9.254,0.227,0.000,0.000,0.000,-221156
0.2606031894683838,752945054,3.113,-9.215,0.227,0.000,0.000,0.000,-221364
0.263016939163208,752948274,3.113,-9.215,0.227,0.000,0.000,0.000,-220321
0.26624608039855957,752953495,3.113,-9.215,0.227,0.000,0.000,0.000,-221103
0.27132105827331543,752958715,3.113,-9.215,0.227,0.000,0.000,0.000,-220903
0.2938230037689209,752962936,3.113,-9.215,0.227,0.000,0.000,0.000,-220883
0.29405689239501953,752967157,3.113,-9.215,0.227,0.000,0.000,0.000,-220365
0.2942681312561035,752971378,3.113,-9.215,0.227,0.000,0.000,0.000,-221129
0.2945699691772461,752976598,3.152,-9.254,0.187,0.000,0.000,0.000,-221574
0.2947859764099121,752978819,3.152,-9.254,0.187,0.000,0.000,0.000,-222004
0.2968251705169678,752983040,3.152,-9.254,0.187,0.000,0.000,0.000,-221234
0.30101513862609863,752987262,3.152,-9.254,0.187,0.000,0.000,0.000,-221396
0.33039212226867676,752990483,3.152,-9.254,0.187,0.000,0.000,0.000,-221937
0.33074092864990234,752993704,3.152,-9.254,0.187,0.000,0.000,0.000,-220782
0.33095812797546387,752997925,3.113,-9.254,0.227,0.000,0.000,0.000,-221558
0.3311641216278076,753000147,3.113,-9.254,0.227,0.000,0.000,0.000,-220940
0.3313601016998291,753004367,3.113,-9.254,0.227,0.000,0.000,0.000,-222053
0.3316001892089844,753008588,3.113,-9.254,0.227,0.000,0.000,0.000,-222319
0.3318040370941162,753011809,3.113,-9.254,0.227,0.000,0.000,0.000,-221299
0.3320019245147705,753019030,3.113,-9.254,0.227,0.000,0.000,0.000,-221319
0.33707213401794434,753023251,3.113,-9.254,0.227,0.000,0.000,0.000,-221387
0.3683350086212158,753027472,3.113,-9.254,0.227,0.000,0.000,0.000,-221831
0.40184712409973145,753029693,3.113,-9.254,0.227,0.000,0.000,0.000,-221285
0.4202139377593994,753033914,3.113,-9.254,0.227,0.000,0.000,0.000,-221001
0.4203488826751709,753038135,3.113,-9.254,0.227,0.000,0.000,0.000,-222071
0.42044496536254883,753042355,3.113,-9.254,0.227,0.000,0.000,0.000,-221605
0.4205460548400879,753046575,3.113,-9.254,0.227,0.000,0.000,0.000,-221782
0.42064714431762695,753050796,3.113,-9.254,0.227,0.000,0.000,0.000,-221676
0.4207420349121094,753056017,3.113,-9.254,0.227,0.000,0.000,0.000,-221742
0.4208390712738037,753059238,3.113,-9.254,0.227,0.000,0.000,0.000,-221862
0.42093801498413086,753065459,3.113,-9.254,0.227,0.000,0.000,0.000,-220555
0.4210329055786133,753069680,3.113,-9.254,0.227,0.000,0.000,0.000,-220571
0.4211289882659912,753072901,3.113,-9.254,0.227,0.000,0.000,0.000,-220613
0.42122387886047363,753078122,3.113,-9.254,0.227,0.000,0.000,0.000,-220234
0.4213240146636963,753082342,3.113,-9.254,0.227,0.000,0.000,0.000,-220579
0.4214179515838623,753085563,3.113,-9.215,0.227,0.000,0.000,0.000,-221311
0.42151594161987305,753090784,3.113,-9.215,0.227,0.000,0.000,0.000,-221202
0.421612024307251,753095005,3.113,-9.215,0.227,0.000,0.000,0.000,-220797
0.4217069149017334,753100226,3.113,-9.215,0.227,0.000,0.000,0.000,-221141
0.4218020439147949,753104447,3.113,-9.215,0.227,0.000,0.000,0.000,-221252
0.4223051071166992,753108667,3.113,-9.254,0.227,0.000,0.000,0.000,-221567
0.42659997940063477,753111887,3.113,-9.254,0.227,0.000,0.000,0.000,-221549
0.42979001998901367,753118108,3.113,-9.254,0.227,0.000,0.000,0.000,-221004
0.4359450340270996,753122328,3.113,-9.254,0.227,0.000,0.000,0.000,-221256
0.45700812339782715,753125548,3.113,-9.254,0.227,0.000,0.000,0.000,-221440
0.4571399688720703,753129769,3.113,-9.254,0.227,0.000,0.000,0.000,-221996
0.45725107192993164,753132989,3.152,-9.215,0.227,0.000,0.000,0.000,-221321
0.457352876663208,753138210,3.152,-9.215,0.227,0.000,0.000,0.000,-221891
0.45745396614074707,753142431,3.152,-9.215,0.227,0.000,0.000,0.000,-220708
0.46038389205932617,753146652,3.152,-9.215,0.227,0.000,0.000,0.000,-221141
0.4645528793334961,753150873,3.152,-9.215,0.227,0.000,0.000,0.000,-220324
0.46878790855407715,753155094,3.152,-9.215,0.227,0.000,0.000,0.000,-222186
0.4875671863555908,753160315,3.152,-9.215,0.227,0.000,0.000,0.000,-221814
0.4876999855041504,753162535,3.152,-9.215,0.227,0.000,0.000,0.000,-221438
0.4878101348876953,753167756,3.152,-9.215,0.227,0.000,0.000,0.000,-220999
0.48792004585266113,753171977,3.152,-9.215,0.227,0.000,0.000,0.000,-221205
0.48990702629089355,753176198,3.152,-9.215,0.227,0.000,0.000,0.000,-221093
0.4940831661224365,753180418,3.152,-9.215,0.227,0.000,0.000,0.000,-221182
0.4983060359954834,753185639,3.152,-9.215,0.227,0.000,0.000,0.000,-220827
0.5035219192504883,753189860,3.113,-9.211,0.266,0.000,0.000,0.000,-221426
0.5229849815368652,753193081,3.113,-9.211,0.266,0.000,0.000,0.000,-221921
0.5231328010559082,753199302,3.113,-9.211,0.266,0.000,0.000,0.000,-220362
0.5232551097869873,753203523,3.113,-9.211,0.266,0.000,0.000,0.000,-222151
0.523374080657959,753207744,3.113,-9.211,0.266,0.000,0.000,0.000,-221875
0.5257370471954346,753211965,3.113,-9.211,0.266,0.000,0.000,0.000,-221954
0.5298709869384766,753218186,3.113,-9.211,0.266,0.000,0.000,0.000,-220843
0.5361411571502686,753222406,3.152,-9.254,0.227,0.000,0.000,0.000,-221373
0.558784008026123,753224626,3.152,-9.254,0.227,0.000,0.000,0.000,-221739
0.5589628219604492,753228847,3.152,-9.254,0.227,0.000,0.000,0.000,-221226
0.5591161251068115,753233068,3.152,-9.254,0.227,0.000,0.000,0.000,-221386
0.5592691898345947,753238289,3.152,-9.254,0.227,0.000,0.000,0.000,-221077
0.5594208240509033,753242510,3.152,-9.254,0.227,0.000,0.000,0.000,-221773
0.5604310035705566,753247731,3.152,-9.254,0.227,0.000,0.000,0.000,-220969
0.5656590461730957,753251952,3.152,-9.254,0.187,0.000,0.000,0.000,-221368
0.569892168045044,753254173,3.152,-9.254,0.187,0.000,0.000,0.000,-220709
0.5969111919403076,753258393,3.152,-9.254,0.187,0.000,0.000,0.000,-222107
0.5971231460571289,753262614,3.152,-9.254,0.187,0.000,0.000,0.000,-221159
0.5973010063171387,753267834,3.152,-9.254,0.187,0.000,0.000,0.000,-221732
0.5974771976470947,753272055,3.152,-9.254,0.187,0.000,0.000,0.000,-221832
0.5976519584655762,753277275,3.152,-9.254,0.187,0.000,0.000,0.000,-221809
0.597830057144165,753281496,3.113,-9.250,0.266,0.000,0.000,0.000,-221106
0.5994210243225098,753284717,3.113,-9.250,0.266,0.000,0.000,0.000,-221511
0.6026721000671387,753289937,3.113,-9.250,0.266,0.000,0.000,0.000,-222779
0.6256198883056641,753294158,3.113,-9.250,0.266,0.000,0.000,0.000,-221863
0.6258590221405029,753298379,3.113,-9.250,0.266,0.000,0.000,0.000,-221794
0.626060962677002,753303600,3.113,-9.250,0.266,0.000,0.000,0.000,-221029
0.6262400150299072,753307821,3.113,-9.250,0.266,0.000,0.000,0.000,-222161
0.6268768310546875,753313043,3.113,-9.250,0.266,0.000,0.000,0.000,-221381
0.6310009956359863,753316263,3.113,-9.250,0.266,0.000,0.000,0.000,-221044
0.634221076965332,753321484,3.113,-9.250,0.266,0.000,0.000,0.000,-222227
0.6665170192718506,753325704,3.113,-9.250,0.266,0.000,0.000,0.000,-222566
0.6667890548706055,753329925,3.113,-9.250,0.266,0.000,0.000,0.000,-221229
0.69917893409729,753333145,3.191,-9.215,0.266,0.000,0.000,0.000,-220845
0.699517011642456,753338366,3.191,-9.215,0.266,0.000,0.000,0.000,-221771
0.6997230052947998,753342587,3.191,-9.215,0.266,0.000,0.000,0.000,-221741
0.6999239921569824,753346808,3.191,-9.215,0.266,0.000,0.000,0.000,-221151
0.7001230716705322,753351031,3.191,-9.215,0.266,0.000,0.000,0.000,-221148
0.7337770462036133,753355252,3.191,-9.215,0.266,0.000,0.000,0.000,-221767
0.7675421237945557,753360473,3.152,-9.215,0.227,0.000,0.000,0.000,-220798
0.8034942150115967,753363694,3.152,-9.215,0.227,0.000,0.000,0.000,-220813
0.8317990303039551,753368915,3.152,-9.215,0.227,0.000,0.000,0.000,-221256
0.8321211338043213,753373136,3.152,-9.215,0.227,0.000,0.000,0.000,-221230
0.8323400020599365,753378356,3.152,-9.215,0.227,0.000,0.000,0.000,-221369
0.8325612545013428,753382577,3.152,-9.215,0.227,0.000,0.000,0.000,-220744
0.8327741622924805,753386798,3.152,-9.215,0.227,0.000,0.000,0.000,-221413
0.8329908847808838,753390019,3.152,-9.215,0.227,0.000,0.000,0.000,-221338
0.833204984664917,753393239,3.152,-9.215,0.227,0.000,0.000,0.000,-221771
0.8334140777587891,753399459,3.152,-9.215,0.227,0.000,0.000,0.000,-221223
0.867089033126831,753403679,3.152,-9.215,0.227,0.000,0.000,0.000,-221639
0.9018869400024414,753407900,3.152,-9.215,0.227,0.000,0.000,0.000,-221688
0.9329829216003418,753412122,3.152,-9.215,0.227,0.000,0.000,0.000,-220713
0.9332799911499023,753417342,3.152,-9.215,0.227,0.000,0.000,0.000,-221347
0.9335269927978516,753422563,3.152,-9.215,0.227,0.000,0.000,0.000,-221518
0.9645481109619141,753424783,3.152,-9.215,0.227,0.000,0.000,0.000,-221294
0.964806079864502,753430004,3.152,-9.215,0.227,0.000,0.000,0.000,-221303
0.9650180339813232,753434225,3.152,-9.215,0.227,0.000,0.000,0.000,-220808
0.9651970863342285,753438446,3.152,-9.215,0.227,0.000,0.000,0.000,-221283
0.9653828144073486,753442667,3.152,-9.215,0.227,0.000,0.000,0.000,-220848
0.9656281471252441,753446888,3.113,-9.215,0.227,0.000,0.000,0.000,-221016
0.9658098220825195,753450109,3.113,-9.215,0.227,0.000,0.000,0.000,-220578
0.9659938812255859,753455330,3.113,-9.215,0.227,0.000,0.000,0.000,-220569
0.9661722183227539,753460550,3.113,-9.215,0.227,0.000,0.000,0.000,-220940
0.966357946395874,753464771,3.113,-9.215,0.227,0.000,0.000,0.000,-221036
0.9665331840515137,753469992,3.113,-9.215,0.227,0.000,0.000,0.000,-221148
0.9667229652404785,753475213,3.113,-9.215,0.227,0.000,0.000,0.000,-221117
1.0006661415100098,753480434,3.152,-9.250,0.266,0.000,0.000,0.000,-221312
1.0302579402923584,753483655,3.152,-9.250,0.266,0.000,0.000,0.000,-221239
1.0305321216583252,753488876,3.152,-9.250,0.266,0.000,0.000,0.000,-221240
1.030745029449463,753493097,3.152,-9.250,0.266,0.000,0.000,0.000,-221183
1.030972957611084,753498317,3.152,-9.250,0.266,0.000,0.000,0.000,-222061
1.0311789512634277,753502538,3.152,-9.250,0.266,0.000,0.000,0.000,-220934
1.0313992500305176,753506759,3.152,-9.250,0.266,0.000,0.000,0.000,-221214
1.0316059589385986,753509979,3.152,-9.215,0.227,0.000,0.000,0.000,-221699
1.031813144683838,753513200,3.152,-9.215,0.227,0.000,0.000,0.000,-221698
1.0320320129394531,753518421,3.152,-9.215,0.227,0.000,0.000,0.000,-221650
1.0322129726409912,753522642,3.152,-9.215,0.227,0.000,0.000,0.000,-221462
1.0324010848999023,753525863,3.152,-9.215,0.227,0.000,0.000,0.000,-221008
1.0328691005706787,753533084,3.152,-9.215,0.227,0.000,0.000,0.000,-220776
1.0332419872283936,753537304,3.152,-9.215,0.227,0.000,0.000,0.000,-220847
1.0334200859069824,753542525,3.152,-9.211,0.266,0.000,0.000,0.000,-221275
1.0660028457641602,753544746,3.152,-9.211,0.266,0.000,0.000,0.000,-220897
1.066370964050293,753548966,3.152,-9.211,0.266,0.000,0.000,0.000,-221608
1.066594123840332,753553187,3.152,-9.211,0.266,0.000,0.000,0.000,-221068
1.0668120384216309,753557407,3.152,-9.211,0.266,0.000,0.000,0.000,-221699
1.1011581420898438,753561627,3.152,-9.211,0.266,0.000,0.000,0.000,-221237
1.1349759101867676,753564848,3.152,-9.211,0.266,0.000,0.000,0.000,-220819
1.1671271324157715,753569068,3.113,-9.176,0.266,0.000,0.000,0.000,-221148
1.2038910388946533,753571289,3.113,-9.176,0.266,0.000,0.000,0.000,-221923
1.2312870025634766,753577510,3.113,-9.176,0.266,0.000,0.000,0.000,-221530
1.2315309047698975,753581731,3.113,-9.176,0.266,0.000,0.000,0.000,-221594
1.2317612171173096,753584952,3.113,-9.176,0.266,0.000,0.000,0.000,-221542
1.231971025466919,753589173,3.113,-9.176,0.266,0.000,0.000,0.000,-220942
1.2322051525115967,753592394,3.113,-9.176,0.266,0.000,0.000,0.000,-221956
1.2324140071868896,753597615,3.113,-9.215,0.227,0.000,0.000,0.000,-221470
1.2326240539550781,753599835,3.113,-9.215,0.227,0.000,0.000,0.000,-221144
1.2328691482543945,753605056,3.113,-9.215,0.227,0.000,0.000,0.000,-221352
1.2330801486968994,753609276,3.113,-9.215,0.227,0.000,0.000,0.000,-220849
1.2332971096038818,753612496,3.113,-9.215,0.227,0.000,0.000,0.000,-221489
1.2335100173950195,753617717,3.113,-9.215,0.227,0.000,0.000,0.000,-221099
1.2685320377349854,753621938,3.152,-9.215,0.227,0.000,0.000,0.000,-221606
1.30230712890625,753625159,3.152,-9.215,0.227,0.000,0.000,0.000,-221844
1.3352560997009277,753630380,3.152,-9.215,0.227,0.000,0.000,0.000,-221270
1.3673882484436035,753635600,3.152,-9.215,0.227,0.000,0.000,0.000,-221289
1.4028840065002441,753640821,3.152,-9.215,0.227,0.000,0.000,0.000,-221676
1.4332160949707031,753646043,3.152,-9.215,0.227,0.000,0.000,0.000,-221351
1.4334509372711182,753650264,3.152,-9.215,0.227,0.000,0.000,0.000,-221576
1.467923879623413,753653484,3.074,-9.250,0.227,0.000,0.000,0.000,-221620
1.500251054763794,753655704,3.074,-9.250,0.227,0.000,0.000,0.000,-221966
1.5345778465270996,753660924,3.074,-9.250,0.227,0.000,0.000,0.000,-220848
1.5680251121520996,753665145,3.074,-9.250,0.227,0.000,0.000,0.000,-221285
1.605799913406372,753668366,3.074,-9.250,0.227,0.000,0.000,0.000,-221132
1.633061170578003,753672586,3.074,-9.250,0.227,0.000,0.000,0.000,-221167
1.6333858966827393,753677806,3.074,-9.250,0.227,0.000,0.000,0.000,-221006
1.6672730445861816,753682027,3.113,-9.172,0.227,0.000,0.000,0.000,-221413
1.7004289627075195,753685247,3.113,-9.172,0.227,0.000,0.000,0.000,-222290
1.734234094619751,753690468,3.113,-9.172,0.227,0.000,0.000,0.000,-221439
1.7683560848236084,753694689,3.113,-9.172,0.227,0.000,0.000,0.000,-221399
1.8065330982208252,753699910,3.113,-9.172,0.227,0.000,0.000,0.000,-221145
1.8322758674621582,753704131,3.113,-9.172,0.227,0.000,0.000,0.000,-220703
1.8326399326324463,753708351,3.152,-9.211,0.266,0.000,0.000,0.000,-221290
1.83286714553833,753710572,3.152,-9.211,0.266,0.000,0.000,0.000,-222016
1.8330769538879395,753714793,3.152,-9.211,0.266,0.000,0.000,0.000,-221200
1.833287000656128,753719014,3.152,-9.211,0.266,0.000,0.000,0.000,-220956
1.833510160446167,753722234,3.152,-9.211,0.266,0.000,0.000,0.000,-221708
1.8668811321258545,753726455,3.152,-9.211,0.266,0.000,0.000,0.000,-220944
1.9002070426940918,753730675,3.152,-9.211,0.266,0.000,0.000,0.000,-221330
1.9355058670043945,753734896,3.152,-9.172,0.227,0.000,0.000,0.000,-221013
1.9655401706695557,753738117,3.152,-9.172,0.227,0.000,0.000,0.000,-221540
1.965857982635498,753743337,3.152,-9.172,0.227,0.000,0.000,0.000,-221715
1.96608304977417,753747557,3.152,-9.172,0.227,0.000,0.000,0.000,-221306
1.9663050174713135,753751777,3.152,-9.172,0.227,0.000,0.000,0.000,-221336
1.9665069580078125,753756998,3.152,-9.172,0.227,0.000,0.000,0.000,-220904
1.9667260646820068,753761219,3.152,-9.172,0.227,0.000,0.000,0.000,-221003
2.0008199214935303,753765440,3.113,-9.211,0.266,0.000,0.000,0.000,-221406
2.030457019805908,753768661,3.113,-9.211,0.266,0.000,0.000,0.000,-220657
2.030724048614502,753773882,3.113,-9.211,0.266,0.000,0.000,0.000,-221094
2.030940055847168,753781103,3.113,-9.211,0.266,0.000,0.000,0.000,-220666
2.0314512252807617,753785324,3.113,-9.211,0.266,0.000,0.000,0.000,-221513
2.0316720008850098,753789530,3.113,-9.211,0.266,0.000,0.000,0.000,-221513
2.0319080352783203,753793750,3.113,-9.211,0.266,0.000,0.000,0.000,-221827
2.0321221351623535,753798970,3.113,-9.172,0.227,0.000,0.000,0.000,-220744
2.032338857650757,753802191,3.113,-9.172,0.227,0.000,0.000,0.000,-221458
2.0325591564178467,753807412,3.113,-9.172,0.227,0.000,0.000,0.000,-221240
2.032778024673462,753811632,3.113,-9.172,0.227,0.000,0.000,0.000,-221218
2.033000946044922,753815853,3.113,-9.172,0.227,0.000,0.000,0.000,-220432
2.033212900161743,753821074,3.113,-9.172,0.227,0.000,0.000,0.000,-221236
2.033437967300415,753825294,3.113,-9.172,0.227,0.000,0.000,0.000,-221728
2.0669050216674805,753829514,3.113,-9.176,0.266,0.000,0.000,0.000,-221428
2.101154088973999,753832735,3.113,-9.176,0.266,0.000,0.000,0.000,-220808
2.135040044784546,753838956,3.113,-9.176,0.266,0.000,0.000,0.000,-221342
2.166815996170044,753843177,3.113,-9.176,0.266,0.000,0.000,0.000,-221934
2.2049379348754883,753848383,3.113,-9.176,0.266,0.000,0.000,0.000,-221934
2.2327890396118164,753852603,3.113,-9.176,0.266,0.000,0.000,0.000,-221139
2.233112096786499,753857824,3.113,-9.176,0.266,0.000,0.000,0.000,-220836
2.2333390712738037,753861045,3.152,-9.211,0.266,0.000,0.000,0.000,-221686
2.267836809158325,753865266,3.152,-9.211,0.266,0.000,0.000,0.000,-221360
2.300206184387207,753870486,3.113,-9.254,0.227,0.000,0.000,0.000,-221461
2.3332459926605225,753873706,3.113,-9.254,0.227,0.000,0.000,0.000,-221517
2.3336079120635986,753879927,3.113,-9.254,0.227,0.000,0.000,0.000,-221454
2.366997003555298,753884148,3.113,-9.254,0.227,0.000,0.000,0.000,-221435
2.4026081562042236,753888368,3.113,-9.254,0.227,0.000,0.000,0.000,-221915
2.4330010414123535,753893589,3.113,-9.254,0.227,0.000,0.000,0.000,-221189
2.433245897293091,753897810,3.113,-9.254,0.227,0.000,0.000,0.000,-221345
2.4334828853607178,753901031,3.152,-9.215,0.227,0.000,0.000,0.000,-220999
2.468486785888672,753903253,3.152,-9.215,0.227,0.000,0.000,0.000,-221394
2.500742197036743,753908474,3.152,-9.215,0.227,0.000,0.000,0.000,-221568
2.5339808464050293,753913694,3.152,-9.215,0.227,0.000,0.000,0.000,-221582
2.567744016647339,753918915,3.152,-9.215,0.227,0.000,0.000,0.000,-220651
2.6052730083465576,753923135,3.152,-9.215,0.227,0.000,0.000,0.000,-221324
2.6318299770355225,753927355,3.152,-9.215,0.227,0.000,0.000,0.000,-220874
2.632086992263794,753931576,3.152,-9.215,0.227,0.000,0.000,0.000,-221008
2.632297992706299,753934797,3.152,-9.215,0.227,0.000,0.000,0.000,-220943
2.6325199604034424,753941017,3.152,-9.215,0.227,0.000,0.000,0.000,-221601
2.6327412128448486,753945237,3.152,-9.215,0.227,0.000,0.000,0.000,-221665
2.6329641342163086,753948458,3.152,-9.215,0.227,0.000,0.000,0.000,-220443
2.6331751346588135,753952679,3.152,-9.215,0.227,0.000,0.000,0.000,-221146
2.6333839893341064,753957900,3.152,-9.215,0.227,0.000,0.000,0.000,-221835
2.666451930999756,753961121,3.152,-9.250,0.266,0.000,0.000,0.000,-221731
2.6668050289154053,753966342,3.152,-9.250,0.266,0.000,0.000,0.000,-221016
2.700836181640625,753970563,3.152,-9.250,0.266,0.000,0.000,0.000,-221849
2.734448194503784,753974784,3.152,-9.250,0.266,0.000,0.000,0.000,-221555
2.7684779167175293,753979005,3.152,-9.250,0.266,0.000,0.000,0.000,-222259
2.805182933807373,753983226,3.074,-9.211,0.227,0.000,0.000,0.000,-221175
2.8322019577026367,753985447,3.074,-9.211,0.227,0.000,0.000,0.000,-221028
2.8324978351593018,753990668,3.074,-9.211,0.227,0.000,0.000,0.000,-221438
2.8327250480651855,753994889,3.074,-9.211,0.227,0.000,0.000,0.000,-221770
2.8329529762268066,754000109,3.074,-9.211,0.227,0.000,0.000,0.000,-220393
2.8331639766693115,754005330,3.074,-9.211,0.227,0.000,0.000,0.000,-221896
2.8333890438079834,754010550,3.074,-9.211,0.227,0.000,0.000,0.000,-221016
2.866748094558716,754013771,3.152,-9.254,0.227,0.000,0.000,0.000,-220618
2.8991329669952393,754016991,3.152,-9.254,0.227,0.000,0.000,0.000,-220408
2.8994319438934326,754023212,3.152,-9.254,0.227,0.000,0.000,0.000,-221964
2.8996400833129883,754029432,3.152,-9.254,0.227,0.000,0.000,0.000,-221174
2.899844169616699,754033652,3.152,-9.254,0.227,0.000,0.000,0.000,-220423
2.900040864944458,754038873,3.152,-9.254,0.227,0.000,0.000,0.000,-221406
2.934985876083374,754043093,3.152,-9.254,0.227,0.000,0.000,0.000,-221426
2.968806028366089,754047314,3.113,-9.215,0.227,0.000,0.000,0.000,-221129
3.0054240226745605,754050534,3.113,-9.215,0.227,0.000,0.000,0.000,-221071
3.029956102371216,754055755,3.113,-9.215,0.227,0.000,0.000,0.000,-221637
3.030186891555786,754059976,3.113,-9.215,0.227,0.000,0.000,0.000,-221503
3.0303831100463867,754064197,3.113,-9.215,0.227,0.000,0.000,0.000,-221142
3.0305590629577637,754068418,3.113,-9.215,0.227,0.000,0.000,0.000,-221205
3.03075909614563,754072639,3.113,-9.215,0.227,0.000,0.000,0.000,-222321
3.0309340953826904,754077859,3.113,-9.250,0.266,0.000,0.000,0.000,-220841
3.0311081409454346,754080080,3.113,-9.250,0.266,0.000,0.000,0.000,-221102
3.0312960147857666,754084301,3.113,-9.250,0.266,0.000,0.000,0.000,-221071
3.0314691066741943,754088522,3.113,-9.250,0.266,0.000,0.000,0.000,-221635
3.0316689014434814,754092743,3.113,-9.250,0.266,0.000,0.000,0.000,-221810
3.031844139099121,754097964,3.113,-9.250,0.266,0.000,0.000,0.000,-220856
3.032021999359131,754102185,3.113,-9.250,0.266,0.000,0.000,0.000,-221332
3.0322070121765137,754106405,3.113,-9.172,0.227,0.000,0.000,0.000,-221068
3.0323808193206787,754109626,3.113,-9.172,0.227,0.000,0.000,0.000,-221473
3.0325639247894287,754115847,3.113,-9.172,0.227,0.000,0.000,0.000,-220831
3.0327391624450684,754121067,3.113,-9.172,0.227,0.000,0.000,0.000,-222198
3.0329232215881348,754125288,3.113,-9.172,0.227,0.000,0.000,0.000,-221411
3.0331010818481445,754129509,3.113,-9.172,0.227,0.000,0.000,0.000,-221209
3.0332789421081543,754133730,3.113,-9.211,0.266,0.000,0.000,0.000,-221397
3.0334620475769043,754136950,3.113,-9.211,0.266,0.000,0.000,0.000,-220543
3.0659360885620117,754143170,3.113,-9.211,0.266,0.000,0.000,0.000,-222181
3.066192150115967,754147391,3.113,-9.211,0.266,0.000,0.000,0.000,-221229
3.066401958465576,754151612,3.113,-9.211,0.266,0.000,0.000,0.000,-221876
3.0666229724884033,754156818,3.113,-9.211,0.266,0.000,0.000,0.000,-221876
3.0668320655822754,754161038,3.113,-9.215,0.227,0.000,0.000,0.000,-221854
3.101395845413208,754163258,3.113,-9.215,0.227,0.000,0.000,0.000,-221237
3.13498592376709,754168479,3.113,-9.215,0.227,0.000,0.000,0.000,-221369
3.1675031185150146,754172700,3.113,-9.215,0.227,0.000,0.000,0.000,-221521
3.205059051513672,754176920,3.113,-9.215,0.227,-0.002,-0.004,0.006,-221896
3.2326571941375732,754181143,3.113,-9.215,0.227,-0.004,0.000,0.000,-220945
3.2329540252685547,754185364,3.113,-9.215,0.227,-0.008,-0.004,-0.018,-221413
3.233156204223633,754190585,3.113,-9.254,0.227,-0.008,-0.004,-0.018,-221465
3.2333428859710693,754192806,3.113,-9.254,0.227,-0.002,0.010,0.012,-221268
3.2681081295013428,754198027,3.113,-9.254,0.227,0.004,-0.004,0.004,-221482
3.300585985183716,754202249,3.113,-9.254,0.227,-0.004,0.002,-0.008,-221785
3.3344991207122803,754206470,3.113,-9.254,0.227,0.006,-0.008,-0.006,-221865
3.366865873336792,754210691,3.113,-9.254,0.227,0.012,0.000,0.000,-221278
3.4047019481658936,754214912,3.113,-9.254,0.227,0.000,-0.008,-0.008,-220755
3.433811902999878,754219133,3.113,-9.215,0.227,0.000,-0.008,-0.008,-221302
3.467700958251953,754222354,3.113,-9.215,0.227,0.018,0.000,-0.002,-221699
3.501832962036133,754227575,3.113,-9.215,0.227,0.002,-0.002,-0.006,-221628
3.5339901447296143,754231796,3.113,-9.215,0.227,0.000,-0.010,-0.004,-220837
3.5673301219940186,754236017,3.113,-9.215,0.227,0.006,0.004,0.006,-221786
3.6053619384765625,754240238,3.113,-9.211,0.266,0.006,0.004,0.006,-221409
3.632249116897583,754243459,3.113,-9.211,0.266,0.014,0.008,0.000,-221180
3.6324851512908936,754249680,3.113,-9.211,0.266,0.012,0.000,0.016,-221801
3.6327271461486816,754253901,3.113,-9.211,0.266,-0.004,-0.004,0.000,-220940
3.6329450607299805,754258122,3.113,-9.211,0.266,0.000,0.004,0.006,-221715
3.6333930492401123,754263342,3.113,-9.211,0.266,-0.006,0.002,-0.004,-221104
3.6677281856536865,754267563,3.113,-9.211,0.266,-0.006,0.006,0.008,-221553
3.7011220455169678,754271784,3.113,-9.215,0.227,-0.006,0.006,0.008,-221552
3.7346081733703613,754275005,3.113,-9.215,0.227,0.006,0.002,-0.004,-221191
3.7681031227111816,754281226,3.113,-9.215,0.227,0.000,0.006,0.004,-221345
3.8060121536254883,754285446,3.113,-9.215,0.227,0.002,0.010,-0.006,-221164
3.8325390815734863,754290667,3.113,-9.215,0.227,0.000,0.006,0.004,-221968
3.8328659534454346,754294888,3.113,-9.215,0.227,0.002,-0.002,-0.002,-221650
3.8330860137939453,754299109,3.113,-9.215,0.227,-0.002,-0.004,0.000,-221293
3.833289861679077,754303330,3.191,-9.215,0.266,-0.002,-0.004,0.000,-221054
3.8334951400756836,754305551,3.191,-9.215,0.266,0.004,-0.002,0.004,-222281
3.8667619228363037,754310772,3.191,-9.215,0.266,-0.004,-0.004,-0.006,-221617
3.8987560272216797,754314993,3.191,-9.215,0.266,0.000,-0.008,-0.008,-220997
3.898987054824829,754319214,3.191,-9.215,0.266,-0.010,0.008,0.008,-220652
3.8992061614990234,754323435,3.191,-9.215,0.266,-0.004,-0.010,-0.002,-221530
3.899425983428955,754328656,3.191,-9.215,0.266,-0.010,0.000,-0.004,-222196
3.8996400833129883,754332877,3.113,-9.215,0.227,-0.010,0.000,-0.004,-221200
3.8998610973358154,754336098,3.113,-9.215,0.227,0.006,-0.002,0.002,-221437
3.900074005126953,754342319,3.113,-9.215,0.227,0.000,-0.010,0.006,-221633
3.933915138244629,754346539,3.113,-9.215,0.227,0.008,-0.002,-0.006,-221828
3.9672791957855225,754349760,3.113,-9.215,0.227,0.002,0.002,0.000,-220821
4.004595994949341,754353983,3.113,-9.215,0.227,-0.002,-0.002,0.008,-221673
4.032837152481079,754358203,3.113,-9.215,0.227,-0.006,0.008,0.004,-222158
4.033135175704956,754362424,3.113,-9.172,0.227,-0.006,0.008,0.004,-221092
4.033347129821777,754365645,3.113,-9.172,0.227,0.012,0.004,-0.014,-221054
4.065891981124878,754370866,3.113,-9.172,0.227,0.000,0.002,0.004,-221807
4.0661461353302,754375087,3.113,-9.172,0.227,0.010,0.002,-0.004,-221179
4.066359043121338,754380308,3.113,-9.172,0.227,-0.006,0.000,0.002,-221580
4.0665600299835205,754384529,3.113,-9.172,0.227,-0.010,0.006,-0.004,-222000
4.066738843917847,754388750,3.113,-9.172,0.227,0.006,-0.002,0.000,-221546
4.09858512878418,754392971,3.152,-9.215,0.227,0.006,-0.002,0.000,-221740
4.098919153213501,754396191,3.152,-9.215,0.227,0.002,0.008,0.012,-221855
4.099131107330322,754401411,3.152,-9.215,0.227,-0.006,-0.006,0.014,-221725
4.099356174468994,754405632,3.152,-9.215,0.227,0.000,0.000,0.006,-221734
4.099564075469971,754410853,3.152,-9.215,0.227,0.002,0.002,0.000,-222304
4.099798917770386,754415074,3.152,-9.215,0.227,0.008,0.006,0.006,-220940
4.100007057189941,754420295,3.152,-9.215,0.227,0.002,0.010,-0.010,-221259
4.134300231933594,754423516,3.074,-9.211,0.227,0.002,0.010,-0.010,-220928
4.166715145111084,754428737,3.074,-9.211,0.227,0.004,0.006,-0.002,-221656
4.204472064971924,754432958,3.074,-9.211,0.227,-0.004,-0.006,0.006,-220995
4.232129096984863,754438179,3.074,-9.211,0.227,0.000,0.000,0.000,-221631
4.2323620319366455,754442400,3.074,-9.211,0.227,0.002,-0.002,-0.008,-221758
4.232593059539795,754446622,3.074,-9.211,0.227,-0.012,-0.018,-0.004,-221715
4.232825994491577,754450843,3.152,-9.211,0.266,-0.012,-0.018,-0.004,-221159
4.233057975769043,754454064,3.152,-9.211,0.266,0.006,0.006,-0.014,-221746
4.23327112197876,754460285,3.152,-9.211,0.266,-0.004,-0.004,0.006,-221504
4.2334840297698975,754464506,3.152,-9.211,0.266,-0.008,0.000,-0.014,-220008
4.267804861068726,754468727,3.152,-9.211,0.266,0.002,-0.006,0.006,-221683
4.30115818977356,754472948,3.152,-9.211,0.266,0.008,0.002,0.000,-221018
4.334853172302246,754478169,3.152,-9.211,0.266,-0.006,0.002,0.018,-221302
4.368170976638794,754482390,3.113,-9.215,0.227,-0.006,0.002,0.018,-221729
4.401308059692383,754485611,3.113,-9.215,0.227,0.010,-0.006,0.012,-221480
4.431446075439453,754490832,3.113,-9.215,0.227,0.006,-0.012,0.000,-221874
4.431708097457886,754495053,3.113,-9.215,0.227,0.000,0.006,-0.006,-220677
4.431951999664307,754500274,3.113,-9.215,0.227,-0.002,0.004,0.002,-221327
4.432165145874023,754504494,3.113,-9.215,0.227,0.008,0.002,-0.008,-221523
4.432392835617065,754508715,3.113,-9.215,0.227,-0.004,0.000,0.000,-221426
4.432628870010376,754512935,3.074,-9.215,0.266,-0.004,0.000,0.000,-221245
4.432852029800415,754516156,3.074,-9.215,0.266,-0.012,-0.002,-0.010,-221642
4.433071136474609,754521377,3.074,-9.215,0.266,0.004,0.002,0.000,-221597
4.43327784538269,754525598,3.074,-9.215,0.266,-0.014,-0.004,0.004,-221918
4.433502912521362,754530819,3.074,-9.215,0.266,-0.008,-0.004,-0.006,-221464
4.468127012252808,754535042,3.074,-9.215,0.266,-0.006,0.002,-0.012,-221254
4.5013041496276855,754540262,3.074,-9.215,0.266,0.006,-0.002,-0.004,-221541
4.53438401222229,754544483,3.152,-9.254,0.227,0.006,-0.002,-0.004,-221491
4.566915035247803,754547704,3.152,-9.254,0.227,-0.010,-0.014,0.000,-220923
4.604901075363159,754552925,3.152,-9.254,0.227,0.010,-0.004,0.010,-221592
4.632925987243652,754558145,3.152,-9.254,0.227,0.008,0.006,-0.012,-221309
4.633241176605225,754563366,3.152,-9.254,0.227,-0.010,-0.004,-0.012,-221439
4.63346004486084,754568587,3.152,-9.215,0.227,-0.010,-0.004,-0.012,-221054
4.667556047439575,754571808,3.152,-9.215,0.227,-0.014,0.002,-0.002,-220651
4.702348947525024,754578031,3.152,-9.215,0.227,-0.010,-0.004,0.012,-221651
4.735533952713013,754582251,3.152,-9.215,0.227,0.000,0.002,-0.004,-221891
4.768964052200317,754586472,3.152,-9.215,0.227,0.004,-0.006,-0.004,-220844
4.807033061981201,754590693,3.152,-9.215,0.227,-0.002,0.010,0.012,-221350
4.8330769538879395,754595914,3.152,-9.215,0.227,0.008,-0.002,0.006,-220942
4.833414793014526,754600135,3.113,-9.215,0.227,0.008,-0.002,0.006,-221346
4.868687152862549,754603357,3.113,-9.215,0.227,0.004,-0.008,-0.014,-221330
4.900290012359619,754608578,3.113,-9.215,0.227,-0.004,0.004,0.002,-222037
4.934852123260498,754613799,3.113,-9.215,0.227,-0.008,-0.002,-0.008,-221772
4.969388961791992,754618020,3.113,-9.215,0.227,0.006,0.000,0.004,-221327
5.0062761306762695,754622242,3.113,-9.215,0.227,0.002,-0.010,0.004,-221225
5.032335042953491,754626463,3.113,-9.215,0.227,0.000,-0.002,0.000,-221506
5.032678127288818,754630684,3.191,-9.215,0.266,0.000,-0.002,0.000,-220949
5.032923221588135,754632905,3.191,-9.215,0.266,-0.008,-0.010,-0.004,-221266
5.0331690311431885,754639126,3.191,-9.215,0.266,0.002,0.006,0.012,-221389
5.0333921909332275,754643347,3.191,-9.215,0.266,-0.002,0.010,0.000,-221654
5.065572023391724,754647568,3.191,-9.215,0.266,0.000,0.002,0.000,-221004
5.065859079360962,754651789,3.191,-9.215,0.266,-0.010,-0.002,-0.004,-220959
5.0660810470581055,754656010,3.191,-9.215,0.266,0.006,-0.004,-0.006,-221316
5.066307067871094,754661231,3.113,-9.137,0.227,0.006,-0.004,-0.006,-221402
5.066522121429443,754664452,3.113,-9.137,0.227,0.002,-0.008,0.008,-221607
5.0667431354522705,754670673,3.113,-9.137,0.227,-0.002,0.006,0.000,-220800
5.100093841552734,754674894,3.113,-9.137,0.227,0.006,0.006,0.000,-221420
5.1347010135650635,754679114,3.113,-9.137,0.227,-0.014,-0.004,0.006,-221447
5.16894006729126,754683335,3.113,-9.137,0.227,0.002,0.004,0.000,-221460
5.206444978713989,754688555,3.113,-9.137,0.227,-0.006,0.006,0.010,-221506
5.2337729930877686,754692776,3.113,-9.211,0.266,-0.006,0.006,0.010,-221015
5.269557952880859,754695997,3.113,-9.211,0.266,-0.002,-0.006,0.004,-221222
5.3021628856658936,754702218,3.113,-9.211,0.266,-0.006,0.000,-0.004,-221951
5.334167003631592,754706439,3.113,-9.211,0.266,-0.008,0.000,-0.012,-220721
5.36904501914978,754710660,3.113,-9.211,0.266,0.002,0.008,0.006,-221814
5.398519039154053,754715881,3.113,-9.211,0.266,0.002,0.006,0.000,-221458
5.398683071136475,754721102,3.113,-9.211,0.266,0.006,0.008,0.008,-221528
5.3988189697265625,754725323,3.113,-9.254,0.227,0.006,0.008,0.008,-221485
5.398942947387695,754728544,3.113,-9.254,0.227,-0.010,-0.002,0.004,-221550
5.399075984954834,754733765,3.113,-9.254,0.227,-0.006,0.006,-0.006,-221388
5.399203062057495,754738986,3.113,-9.254,0.227,-0.002,0.002,0.000,-221934
5.399328947067261,754743207,3.113,-9.254,0.227,-0.004,-0.006,-0.006,-221669
5.399464845657349,754748428,3.113,-9.254,0.227,0.006,0.012,0.000,-220827
5.3995890617370605,754752649,3.074,-9.211,0.227,0.006,0.012,0.000,-221145
5.39971923828125,754754870,3.074,-9.211,0.227,-0.002,-0.008,0.000,-221427
5.399837970733643,754760092,3.074,-9.211,0.227,-0.004,-0.002,0.000,-221416
5.399959087371826,754764313,3.074,-9.211,0.227,-0.004,0.000,-0.006,-221673
5.400075912475586,754768534,3.074,-9.211,0.227,-0.006,0.012,0.006,-220678
5.417046070098877,754772754,3.074,-9.211,0.227,0.008,-0.008,0.006,-221043
5.417169809341431,754778975,3.074,-9.211,0.227,0.000,0.002,0.000,-221488
5.4172751903533936,754783196,3.113,-9.211,0.266,0.000,0.002,0.000,-221324
5.41738224029541,754786417,3.113,-9.211,0.266,0.004,-0.006,0.004,-220844
5.41748309135437,754792638,3.113,-9.211,0.266,-0.004,0.014,-0.010,-221717
5.417591094970703,754796859,3.113,-9.211,0.266,0.000,-0.010,-0.004,-220898
5.41769003868103,754801080,3.113,-9.211,0.266,0.004,-0.008,-0.006,-220526
5.417793035507202,754805301,3.113,-9.211,0.266,-0.006,0.000,-0.002,-221720
5.41789698600769,754808522,3.113,-9.211,0.266,-0.006,0.000,0.000,-221652
5.417994022369385,754812742,3.152,-9.172,0.227,-0.006,0.000,0.000,-222391
5.418099880218506,754815963,3.152,-9.172,0.227,0.000,0.002,-0.004,-221888
5.418195962905884,754822184,3.152,-9.172,0.227,-0.004,-0.002,-0.008,-221401
5.418299198150635,754826405,3.152,-9.172,0.227,0.002,-0.006,0.010,-221805
5.418397903442383,754830626,3.152,-9.172,0.227,0.010,0.008,-0.010,-221388
5.418494939804077,754834847,3.152,-9.172,0.227,0.002,-0.006,0.000,-221278
5.41860294342041,754840068,3.152,-9.172,0.227,0.014,-0.006,0.010,-221385
5.418705940246582,754844289,3.152,-9.211,0.266,0.014,-0.006,0.010,-221252
5.418810129165649,754847509,3.152,-9.211,0.266,0.000,-0.006,-0.002,-220965
5.41890811920166,754853730,3.152,-9.211,0.266,-0.002,0.000,0.000,-221354
5.419007062911987,754858936,3.152,-9.211,0.266,0.004,0.000,0.020,-221354
5.419104099273682,754863156,3.152,-9.211,0.266,0.004,0.010,0.000,-220895
5.419205188751221,754868377,3.152,-9.211,0.266,-0.002,-0.004,0.002,-220595
5.419312000274658,754872598,3.152,-9.172,0.227,-0.002,-0.004,0.002,-221074
5.419414043426514,754874819,3.152,-9.172,0.227,-0.008,-0.002,0.000,-221327
5.419525146484375,754881040,3.152,-9.172,0.227,0.002,-0.002,0.000,-221305
5.419665098190308,754885261,3.152,-9.172,0.227,-0.002,-0.004,-0.004,-221466
5.41977596282959,754889482,3.152,-9.172,0.227,-0.002,-0.004,-0.008,-221036
5.4198830127716064,754893703,3.152,-9.172,0.227,-0.004,-0.004,0.016,-221153
5.419981956481934,754898924,3.152,-9.172,0.227,0.010,0.010,-0.002,-220910
5.4200849533081055,754903144,3.152,-9.250,0.266,0.010,0.010,-0.002,-220670
5.420182943344116,754906365,3.152,-9.250,0.266,0.004,0.004,0.004,-220523
5.420283079147339,754912586,3.152,-9.250,0.266,-0.004,-0.004,0.000,-220576
5.420383930206299,754917807,3.152,-9.250,0.266,0.004,-0.002,-0.002,-221304
5.420485019683838,754923028,3.152,-9.250,0.266,-0.004,-0.010,0.000,-221598
5.420590162277222,754927249,3.152,-9.250,0.266,-0.004,-0.004,0.008,-220994
5.420689821243286,754930470,3.152,-9.250,0.266,-0.016,0.006,0.006,-221295
5.420795202255249,754934691,3.113,-9.215,0.187,-0.016,0.006,0.006,-221204
5.420892953872681,754937912,3.113,-9.215,0.187,-0.006,0.008,0.008,-221378
5.42099404335022,754944133,3.113,-9.215,0.187,-0.002,0.002,0.010,-221980
5.421340227127075,754949354,3.113,-9.215,0.187,-0.004,-0.002,-0.014,-220960
5.421442985534668,754953575,3.113,-9.215,0.187,-0.004,0.008,-0.002,-220651
5.421550035476685,754958796,3.113,-9.215,0.187,0.008,-0.004,0.002,-221371
5.4216461181640625,754964017,3.113,-9.215,0.187,-0.004,0.008,0.008,-221563
5.42177414894104,754968239,3.152,-9.211,0.266,-0.004,0.008,0.008,-220895
5.4218690395355225,754971460,3.152,-9.211,0.266,0.004,-0.008,0.000,-221013
5.421967029571533,754977681,3.152,-9.211,0.266,0.004,-0.006,-0.004,-220995
5.42206597328186,754981902,3.152,-9.211,0.266,0.006,0.000,-0.002,-221558
5.4221601486206055,754986123,3.152,-9.211,0.266,0.006,-0.006,0.000,-221444
5.422260046005249,754991344,3.152,-9.211,0.266,0.004,-0.006,0.000,-222168
5.4223549365997314,754995565,3.152,-9.211,0.266,0.006,0.004,-0.002,-221038
5.422455072402954,755000786,3.113,-9.215,0.187,0.006,0.004,-0.002,-221546
5.42254900932312,755003007,3.113,-9.215,0.187,0.004,0.010,-0.006,-221254
5.4226438999176025,755008228,3.113,-9.215,0.187,-0.002,0.010,-0.008,-221860
5.4227471351623535,755011449,3.152,-9.254,0.227,-0.002,0.010,-0.008,-221583
5.4228432178497314,755015670,3.152,-9.254,0.227,-0.004,-0.008,0.000,-220956
5.422948122024536,755020891,3.152,-9.254,0.227,-0.004,0.002,0.000,-221207
5.4230430126190186,755025112,3.152,-9.254,0.227,0.004,0.010,-0.002,-221119
5.423143148422241,755029333,3.152,-9.254,0.227,0.004,0.014,-0.004,-220906
5.423238039016724,755033554,3.152,-9.254,0.227,-0.004,-0.008,0.004,-221124
5.423335075378418,755038775,3.113,-9.211,0.266,-0.004,-0.008,0.004,-221440
5.423435926437378,755041996,3.113,-9.211,0.266,0.008,0.006,-0.014,-221474
5.4235310554504395,755047217,3.113,-9.211,0.266,0.008,-0.006,-0.008,-221179
5.4236321449279785,755051438,3.113,-9.211,0.266,-0.004,0.010,0.002,-220608
5.423729181289673,755055659,3.113,-9.211,0.266,0.004,0.010,-0.002,-220835
5.42383885383606,755060880,3.113,-9.211,0.266,0.002,-0.004,0.010,-221120
5.423933982849121,755066100,3.113,-9.211,0.266,0.000,0.008,-0.002,-221233
5.424028158187866,755070321,3.113,-9.281,0.227,0.000,0.008,-0.002,-221952
5.424129009246826,755073542,3.113,-9.281,0.227,-0.010,-0.004,0.000,-221614
5.4242260456085205,755079763,3.113,-9.281,0.227,0.008,0.000,-0.016,-220913
5.4243268966674805,755083984,3.113,-9.281,0.227,0.012,0.002,0.000,-221163
5.424419164657593,755088205,3.113,-9.281,0.227,-0.004,0.000,0.012,-221354
5.424513101577759,755092425,3.113,-9.281,0.227,0.004,-0.004,-0.008,-221226
5.424615144729614,755096646,3.113,-9.281,0.227,0.004,0.004,0.010,-221157
5.424708127975464,755101867,3.113,-9.211,0.266,0.004,0.004,0.010,-221263
5.42480993270874,755105088,3.113,-9.211,0.266,-0.006,-0.008,0.012,-221807
5.424906015396118,755111309,3.113,-9.211,0.266,0.002,-0.002,-0.014,-220998
5.425008058547974,755115530,3.113,-9.211,0.266,0.010,-0.006,-0.002,-221073
5.425105094909668,755119751,3.113,-9.211,0.266,-0.002,0.006,-0.008,-220835
5.425201892852783,755123972,3.113,-9.211,0.266,-0.012,-0.006,0.006,-221792
5.425303936004639,755129193,3.113,-9.211,0.266,0.004,-0.008,0.008,-221752
5.425398111343384,755133414,3.113,-9.211,0.266,0.004,-0.008,0.008,-221146
5.425503969192505,755136634,3.113,-9.211,0.266,-0.002,-0.002,-0.004,-221091
5.425601959228516,755142855,3.113,-9.211,0.266,-0.002,-0.008,0.000,-221268
5.425704002380371,755147076,3.113,-9.211,0.266,-0.004,0.002,-0.006,-222021
5.42579984664917,755150297,3.113,-9.211,0.266,-0.002,-0.006,0.000,-221378
5.425896883010864,755154518,3.113,-9.211,0.266,-0.002,-0.002,-0.002,-221619
5.426004886627197,755158739,3.113,-9.211,0.266,-0.004,0.006,-0.012,-221556
5.426100969314575,755162960,3.113,-9.215,0.227,-0.004,0.006,-0.012,-221246
5.426202058792114,755166181,3.113,-9.215,0.227,0.004,0.002,0.004,-221058
5.426295042037964,755171402,3.113,-9.215,0.227,0.010,-0.002,0.000,-222143
5.426398038864136,755175623,3.113,-9.215,0.227,0.004,-0.008,0.000,-221804
5.426496982574463,755180843,3.113,-9.215,0.227,0.000,-0.008,-0.004,-220823
5.426593065261841,755185064,3.113,-9.215,0.227,-0.004,-0.014,0.002,-221733
5.4267051219940186,755189285,3.113,-9.215,0.227,-0.004,0.000,0.000,-221301
5.426799058914185,755193506,3.152,-9.211,0.266,-0.004,0.000,0.000,-221847
5.426903009414673,755196726,3.152,-9.211,0.266,0.006,-0.004,0.004,-220847
5.427000045776367,755203947,3.152,-9.211,0.266,-0.002,0.008,0.006,-221462
5.427100896835327,755208168,3.152,-9.211,0.266,-0.012,0.004,-0.002,-221194
5.42720103263855,755211389,3.152,-9.211,0.266,0.000,0.004,0.004,-221269
5.4273011684417725,755215610,3.152,-9.211,0.266,0.002,0.010,0.006,-221396
5.427398920059204,755219831,3.152,-9.211,0.266,0.002,0.004,-0.004,-220696
5.427494049072266,755224052,3.113,-9.215,0.187,0.002,0.004,-0.004,-222054
5.427600145339966,755226273,3.113,-9.215,0.187,-0.002,-0.004,0.000,-221519
5.427700042724609,755231494,3.113,-9.215,0.187,0.004,-0.002,0.012,-220555
5.427794933319092,755235715,3.113,-9.215,0.187,0.002,-0.006,0.000,-222083
5.427898168563843,755240935,3.113,-9.215,0.187,-0.014,-0.008,-0.002,-221485
5.4279961585998535,755245156,3.113,-9.215,0.187,0.004,0.008,0.004,-221701
5.428099155426025,755249377,3.113,-9.215,0.187,-0.006,0.006,0.000,-221370
5.428194046020508,755253598,3.152,-9.211,0.266,-0.006,0.006,0.000,-221045
5.428294897079468,755256819,3.152,-9.211,0.266,0.006,0.004,-0.006,-221968
5.428405046463013,755263040,3.152,-9.211,0.266,-0.002,0.004,-0.002,-220826
5.428502082824707,755267261,3.152,-9.211,0.266,0.002,0.012,0.006,-221714
5.4286048412323,755270482,3.152,-9.211,0.266,-0.008,-0.008,0.006,-221506
5.4287049770355225,755274703,3.152,-9.211,0.266,0.004,-0.006,-0.012,-220869
5.428807020187378,755278924,3.152,-9.211,0.266,-0.004,0.004,0.000,-221492
5.4289021492004395,755283144,3.113,-9.215,0.227,-0.004,0.004,0.000,-221321
5.429002046585083,755286364,3.113,-9.215,0.227,0.002,0.000,0.004,-220989
5.429097890853882,755291585,3.113,-9.215,0.227,0.000,0.004,-0.004,-221854
5.429191827774048,755295806,3.113,-9.215,0.227,-0.016,-0.012,0.004,-220879
5.429297208786011,755300027,3.113,-9.215,0.227,-0.006,0.002,-0.004,-221301
5.42939305305481,755304248,3.113,-9.215,0.227,0.000,0.008,-0.002,-220865
5.4294960498809814,755308469,3.113,-9.215,0.227,-0.002,-0.004,0.004,-222102
5.429586887359619,755312690,3.113,-9.215,0.227,-0.002,-0.004,0.004,-221649
5.42969012260437,755315911,3.113,-9.215,0.227,0.006,-0.002,-0.004,-220464
5.42979097366333,755322132,3.113,-9.215,0.227,0.010,0.000,-0.002,-221956
5.4298810958862305,755326353,3.113,-9.215,0.227,0.004,-0.002,0.014,-221674
5.429977178573608,755331574,3.113,-9.215,0.227,0.000,-0.002,-0.002,-220939
5.430068016052246,755335795,3.113,-9.215,0.227,0.002,-0.006,0.008,-221307
5.430166006088257,755341016,3.113,-9.215,0.227,-0.004,-0.002,0.012,-221562
5.4302589893341064,755344237,3.113,-9.215,0.227,-0.004,-0.002,0.012,-222020
5.430356979370117,755349458,3.113,-9.215,0.227,-0.006,0.000,0.004,-221106
5.4304518699646,755353679,3.113,-9.215,0.227,-0.002,-0.006,-0.004,-221580
5.430545091629028,755357900,3.113,-9.215,0.227,-0.002,0.000,0.008,-221793
5.430644989013672,755362121,3.113,-9.215,0.227,0.012,0.008,0.012,-221436
5.430746078491211,755367341,3.113,-9.215,0.227,-0.004,-0.008,-0.002,-220812
5.430849075317383,755371562,3.152,-9.215,0.227,-0.004,-0.008,-0.002,-221254
5.430944919586182,755374783,3.152,-9.215,0.227,0.006,0.006,-0.010,-221387
5.431035041809082,755381004,3.152,-9.215,0.227,0.006,0.006,-0.004,-220961
5.431132078170776,755386226,3.152,-9.215,0.227,0.008,-0.004,-0.004,-221798
5.431222915649414,755390447,3.152,-9.215,0.227,0.006,-0.002,-0.002,-221894
5.431329011917114,755394668,3.152,-9.215,0.227,-0.006,0.006,-0.002,-221169
5.431420803070068,755398890,3.152,-9.215,0.227,-0.002,0.012,0.004,-221987
5.431515216827393,755403111,3.074,-9.211,0.227,-0.002,0.012,0.004,-221455
5.431612968444824,755406332,3.074,-9.211,0.227,0.002,-0.006,0.004,-221500
5.431701898574829,755411553,3.074,-9.211,0.227,-0.002,-0.006,-0.002,-221741
5.431802034378052,755415774,3.074,-9.211,0.227,0.002,0.006,0.000,-220718
5.43189001083374,755420994,3.074,-9.211,0.227,-0.002,0.004,-0.010,-220868
5.431989908218384,755425215,3.074,-9.211,0.227,-0.002,0.000,0.002,-221780
5.432079076766968,755429435,3.074,-9.211,0.227,-0.004,-0.004,-0.004,-221503
5.432172060012817,755433656,3.113,-9.172,0.227,-0.004,-0.004,-0.004,-221207
5.432273864746094,755436877,3.113,-9.172,0.227,-0.006,-0.006,0.010,-221411
5.432363986968994,755442098,3.113,-9.172,0.227,-0.004,-0.004,0.000,-221811
5.432470083236694,755446319,3.113,-9.172,0.227,0.002,-0.006,0.006,-221364
5.432561159133911,755451540,3.113,-9.172,0.227,0.010,0.000,-0.008,-222049
5.432841062545776,755455761,3.113,-9.172,0.227,-0.008,0.004,-0.004,-221311
5.433058023452759,755463982,3.113,-9.172,0.227,0.000,-0.002,0.002,-221110
5.433148145675659,755468203,3.152,-9.215,0.227,0.000,-0.002,0.002,-221153
5.433243036270142,755471424,3.152,-9.215,0.227,-0.002,0.002,0.002,-221356
5.433332920074463,755477645,3.152,-9.215,0.227,-0.014,0.002,-0.002,-221901
5.454941987991333,755481866,3.152,-9.215,0.227,-0.002,-0.002,-0.004,-220676
5.455061912536621,755486087,3.152,-9.215,0.227,0.000,0.000,0.000,-221391
5.455164909362793,755490308,3.152,-9.215,0.227,0.000,0.000,0.000,-221084
5.455261945724487,755495528,3.152,-9.215,0.227,0.000,0.000,0.000,-220822
5.455356121063232,755500749,3.113,-9.215,0.187,0.000,0.000,0.000,-222090
5.455456972122192,755503970,3.113,-9.215,0.187,0.000,0.000,0.000,-222085
5.455550909042358,755509192,3.113,-9.215,0.187,0.000,0.000,0.000,-221429
5.455655097961426,755513412,3.113,-9.215,0.187,0.000,0.000,0.000,-221037
5.455749034881592,755518632,3.113,-9.215,0.187,0.000,0.000,0.000,-221420
5.455844163894653,755523853,3.113,-9.215,0.187,0.000,0.000,0.000,-221171
5.456167221069336,755528074,3.113,-9.215,0.187,0.000,0.000,0.000,-221293
5.456262111663818,755533294,3.152,-9.215,0.227,0.000,0.000,0.000,-221516
5.456362009048462,755536514,3.152,-9.215,0.227,0.000,0.000,0.000,-220720
5.456456899642944,755541735,3.152,-9.215,0.227,0.000,0.000,0.000,-221575
5.456552982330322,755545956,3.152,-9.215,0.227,0.000,0.000,0.000,-221111
5.456654071807861,755551177,3.152,-9.215,0.227,0.000,0.000,0.000,-222163
5.456748962402344,755555398,3.152,-9.215,0.227,0.000,0.000,0.000,-221344
5.456849098205566,755560619,3.152,-9.215,0.227,0.000,0.000,0.000,-221554
5.456944227218628,755563840,3.152,-9.215,0.227,0.000,0.000,0.000,-221333
5.457045078277588,755566060,3.152,-9.215,0.227,0.000,0.000,0.000,-221328
5.457143068313599,755571281,3.152,-9.215,0.227,0.000,0.000,0.000,-221541
5.457237958908081,755575501,3.152,-9.215,0.227,0.000,0.000,0.000,-221242
5.457340240478516,755580721,3.152,-9.215,0.227,0.000,0.000,0.000,-221531
5.457435131072998,755584942,3.152,-9.215,0.227,0.000,0.000,0.000,-220907
5.457536935806274,755589163,3.152,-9.211,0.266,0.000,0.000,0.000,-221569
5.457633018493652,755591384,3.152,-9.211,0.266,0.000,0.000,0.000,-221803
5.457726955413818,755596605,3.152,-9.211,0.266,0.000,0.000,0.000,-221921
5.457831144332886,755601826,3.152,-9.211,0.266,0.000,0.000,0.000,-221426
5.457925081253052,755606047,3.152,-9.211,0.266,0.000,0.000,0.000,-221205
5.458022117614746,755610268,3.152,-9.211,0.266,0.000,0.000,0.000,-221293
5.458112001419067,755614489,3.152,-9.211,0.266,0.000,0.000,0.000,-221830
5.458203077316284,755618710,3.113,-9.215,0.227,0.000,0.000,0.000,-221780
5.458299160003662,755620931,3.113,-9.215,0.227,0.000,0.000,0.000,-221352
5.458390951156616,755625151,3.113,-9.215,0.227,0.000,0.000,0.000,-221691
5.4584879875183105,755629372,3.113,-9.215,0.227,0.000,0.000,0.000,-221077
5.458578824996948,755633593,3.113,-9.215,0.227,0.000,0.000,0.000,-221967
5.4586780071258545,755638814,3.113,-9.215,0.227,0.000,0.000,0.000,-221434
5.4587719440460205,755643035,3.113,-9.215,0.227,0.000,0.000,0.000,-221921
5.458865165710449,755647256,3.113,-9.254,0.227,0.000,0.000,0.000,-221500
5.4589619636535645,755650476,3.113,-9.254,0.227,0.000,0.000,0.000,-220937
5.459053993225098,755655697,3.113,-9.254,0.227,0.000,0.000,0.000,-221518
5.459154844284058,755660918,3.113,-9.254,0.227,0.000,0.000,0.000,-220739
5.45924711227417,755665139,3.113,-9.254,0.227,0.000,0.000,0.000,-221829
5.459341049194336,755669359,3.113,-9.254,0.227,0.000,0.000,0.000,-221802
5.459441900253296,755673580,3.113,-9.254,0.227,0.000,0.000,0.000,-221766
5.459536075592041,755677801,3.113,-9.172,0.187,0.000,0.000,0.000,-221210
5.459635972976685,755680023,3.113,-9.172,0.187,0.000,0.000,0.000,-221386
5.459730863571167,755684244,3.113,-9.172,0.187,0.000,0.000,0.000,-221833
5.459823131561279,755688465,3.113,-9.172,0.187,0.000,0.000,0.000,-221719
5.459920167922974,755691685,3.113,-9.172,0.187,0.000,0.000,0.000,-220912
5.460011005401611,755695906,3.113,-9.172,0.187,0.000,0.000,0.000,-221198
5.46011209487915,755700127,3.113,-9.250,0.266,0.000,0.000,0.000,-221234
5.460206985473633,755702348,3.113,-9.250,0.266,0.000,0.000,0.000,-220943
5.46030592918396,755709568,3.113,-9.250,0.266,0.000,0.000,0.000,-221557
5.460406064987183,755713789,3.113,-9.250,0.266,0.000,0.000,0.000,-221976
5.460497856140137,755719010,3.113,-9.250,0.266,0.000,0.000,0.000,-221252
5.460601091384888,755724230,3.113,-9.250,0.266,0.000,0.000,0.000,-221743
5.460700988769531,755729450,3.152,-9.250,0.266,0.000,0.000,0.000,-221434
5.460799932479858,755732673,3.152,-9.250,0.266,0.000,0.000,0.000,-220947
5.460896968841553,755738893,3.152,-9.250,0.266,0.000,0.000,0.000,-221524
5.460988998413086,755743113,3.152,-9.250,0.266,0.000,0.000,0.000,-221477
5.46108603477478,755747334,3.152,-9.250,0.266,0.000,0.000,0.000,-221792
5.461177110671997,755751554,3.152,-9.250,0.266,0.000,0.000,0.000,-220878
5.461276054382324,755756775,3.152,-9.250,0.266,0.000,0.000,0.000,-222217
5.461368083953857,755761996,3.113,-9.215,0.227,0.000,0.000,0.000,-221051
5.461458921432495,755764216,3.113,-9.215,0.227,0.000,0.000,0.000,-221266
5.461560010910034,755769437,3.113,-9.215,0.227,0.000,0.000,0.000,-221101
5.461650848388672,755774657,3.113,-9.215,0.227,0.000,0.000,0.000,-221404
5.461749076843262,755779878,3.113,-9.215,0.227,0.000,0.000,0.000,-220831
5.461843967437744,755784099,3.113,-9.215,0.227,0.000,0.000,0.000,-221181
5.4619362354278564,755788320,3.113,-9.215,0.227,0.000,0.000,0.000,-221728
5.4620349407196045,755792541,3.074,-9.215,0.266,0.000,0.000,0.000,-221221
5.462127208709717,755795761,3.074,-9.215,0.266,0.000,0.000,0.000,-221604
5.462222099304199,755801981,3.074,-9.215,0.266,0.000,0.000,0.000,-221761
5.462312936782837,755806201,3.074,-9.215,0.266,0.000,0.000,0.000,-221331
5.462416172027588,755810422,3.074,-9.215,0.266,0.000,0.000,0.000,-221796
5.462506055831909,755814643,3.074,-9.215,0.266,0.000,0.000,0.000,-221501
5.462599992752075,755819864,3.074,-9.215,0.266,0.000,0.000,0.000,-221540
5.462705850601196,755824085,3.152,-9.281,0.227,0.000,0.000,0.000,-221355
5.462800025939941,755827305,3.152,-9.281,0.227,0.000,0.000,0.000,-221893
5.462907075881958,755833525,3.152,-9.281,0.227,0.000,0.000,0.000,-221721
5.462996959686279,755838745,3.152,-9.281,0.227,0.000,0.000,0.000,-221250
5.463090896606445,755843966,3.152,-9.281,0.227,0.000,0.000,0.000,-220916
5.463190078735352,755849187,3.152,-9.281,0.227,0.000,0.000,0.000,-220344
5.463284969329834,755853407,3.152,-9.281,0.227,0.000,0.000,0.000,-221306
5.46338415145874,755858628,3.113,-9.215,0.227,0.000,0.000,0.000,-222057
5.463492155075073,755860849,3.113,-9.215,0.227,0.000,0.000,0.000,-221954
5.463590145111084,755865069,3.113,-9.215,0.227,0.000,0.000,0.000,-221285
5.463686227798462,755869290,3.113,-9.215,0.227,0.000,0.000,0.000,-221094
5.463778018951416,755873511,3.113,-9.215,0.227,0.000,0.000,0.000,-221962
5.463872909545898,755878732,3.113,-9.215,0.227,0.000,0.000,0.000,-221857
5.463964223861694,755882952,3.113,-9.215,0.227,0.000,0.000,0.000,-221554
5.464059114456177,755887172,3.113,-9.215,0.227,0.000,0.000,0.000,-221727
5.464148044586182,755890392,3.113,-9.215,0.227,0.000,0.000,0.000,-221975
5.464233875274658,755894613,3.113,-9.215,0.227,0.000,0.000,0.000,-221528
5.464332103729248,755899834,3.113,-9.215,0.227,0.000,0.000,0.000,-221422
5.46441912651062,755904055,3.113,-9.215,0.227,0.000,0.000,0.000,-221026
5.464514970779419,755908275,3.113,-9.215,0.227,0.000,0.000,0.000,-221633
5.464604139328003,755912496,3.113,-9.215,0.227,0.000,0.000,0.000,-221188
5.464694023132324,755916717,3.074,-9.250,0.227,0.000,0.000,0.000,-221424
5.46478796005249,755918938,3.074,-9.250,0.227,0.000,0.000,0.000,-221503
5.464874982833862,755924159,3.074,-9.250,0.227,0.000,0.000,0.000,-221567
5.464966058731079,755928379,3.074,-9.250,0.227,0.000,0.000,0.000,-221501
5.465052127838135,755931599,3.074,-9.250,0.227,0.000,0.000,0.000,-221202
5.465145111083984,755935819,3.074,-9.250,0.227,0.000,0.000,0.000,-222121
5.46523380279541,755940039,3.074,-9.250,0.227,0.000,0.000,0.000,-221261
5.465319871902466,755943260,3.152,-9.254,0.227,0.000,0.000,0.000,-221816
5.465417861938477,755945481,3.152,-9.254,0.227,0.000,0.000,0.000,-221022
5.465503931045532,755949702,3.152,-9.254,0.227,0.000,0.000,0.000,-221622
5.465601921081543,755953922,3.152,-9.254,0.227,0.000,0.000,0.000,-222261
5.46569299697876,755960143,3.152,-9.254,0.227,0.000,0.000,0.000,-221701
5.465781927108765,755964363,3.152,-9.254,0.227,0.000,0.000,0.000,-221756
5.465875864028931,755969584,3.152,-9.254,0.227,0.000,0.000,0.000,-221623
5.465961933135986,755973805,3.152,-9.254,0.227,0.000,0.000,0.000,-221678
5.466057062149048,755977026,3.152,-9.254,0.227,0.000,0.000,0.000,-221982
5.466145992279053,755982246,3.152,-9.254,0.227,0.000,0.000,0.000,-220777
5.466233015060425,755986466,3.152,-9.254,0.227,0.000,0.000,0.000,-222061
5.4663238525390625,755991687,3.152,-9.254,0.227,0.000,0.000,0.000,-221907
5.466418981552124,755996908,3.074,-9.250,0.227,0.000,0.000,0.000,-221190
5.466511011123657,756000129,3.074,-9.250,0.227,0.000,0.000,0.000,-221731
5.466597080230713,756006349,3.074,-9.250,0.227,0.000,0.000,0.000,-221904
5.466689109802246,756010570,3.074,-9.250,0.227,0.000,0.000,0.000,-220962
5.488541841506958,756014791,3.074,-9.250,0.227,0.000,0.000,0.000,-221740
5.488654136657715,756021012,3.074,-9.250,0.227,0.000,0.000,0.000,-221395
5.488758087158203,756025232,3.074,-9.250,0.227,0.000,0.000,0.000,-221078
5.4888551235198975,756029453,3.152,-9.211,0.266,0.000,0.000,0.000,-221043
5.488956928253174,756031673,3.152,-9.211,0.266,0.000,0.000,0.000,-220967
5.489053010940552,756037894,3.152,-9.211,0.266,0.000,0.000,0.000,-221452
5.489148139953613,756042115,3.152,-9.211,0.266,0.000,0.000,0.000,-221591
5.489248991012573,756046336,3.152,-9.211,0.266,0.000,0.000,0.000,-221488
5.489345073699951,756050557,3.152,-9.211,0.266,0.000,0.000,0.000,-221404
5.489444017410278,756053778,3.152,-9.211,0.266,0.000,0.000,0.000,-221169
5.48953914642334,756058999,3.191,-9.250,0.227,0.000,0.000,0.000,-221906
5.4896399974823,756061221,3.191,-9.250,0.227,0.000,0.000,0.000,-221790
5.4897379875183105,756065442,3.191,-9.250,0.227,0.000,0.000,0.000,-221087
5.489832878112793,756069663,3.191,-9.250,0.227,0.000,0.000,0.000,-220988
5.489933013916016,756073884,3.191,-9.250,0.227,0.000,0.000,0.000,-222075
5.490027904510498,756079105,3.191,-9.250,0.227,0.000,0.000,0.000,-220958
5.490128040313721,756083325,3.191,-9.250,0.227,0.000,0.000,0.000,-221242
5.490223169326782,756087545,3.113,-9.250,0.266,0.000,0.000,0.000,-222178
5.490319013595581,756090766,3.113,-9.250,0.266,0.000,0.000,0.000,-221633
5.490425109863281,756095986,3.113,-9.250,0.266,0.000,0.000,0.000,-221337
5.490520000457764,756100207,3.113,-9.250,0.266,0.000,0.000,0.000,-221550
5.4906229972839355,756104428,3.113,-9.250,0.266,0.000,0.000,0.000,-220906
5.490897178649902,756108649,3.113,-9.250,0.266,0.000,0.000,0.000,-221354
5.49099588394165,756113870,3.113,-9.250,0.266,0.000,0.000,0.000,-221333
5.49109411239624,756119091,3.152,-9.215,0.227,0.000,0.000,0.000,-221673
5.491189002990723,756122311,3.152,-9.215,0.227,0.000,0.000,0.000,-221426
5.491290092468262,756128532,3.152,-9.215,0.227,0.000,0.000,0.000,-221298
5.491384983062744,756132753,3.152,-9.215,0.227,0.000,0.000,0.000,-221351
5.491484880447388,756135974,3.152,-9.215,0.227,0.000,0.000,0.000,-220749
5.491581916809082,756141195,3.152,-9.215,0.227,0.000,0.000,0.000,-221185
5.49167799949646,756145415,3.152,-9.215,0.227,0.000,0.000,0.000,-221052
5.491778135299683,756149636,3.113,-9.215,0.227,0.000,0.000,0.000,-220154
5.4918739795684814,756151856,3.113,-9.215,0.227,0.000,0.000,0.000,-220955
5.491976976394653,756156077,3.113,-9.215,0.227,0.000,0.000,0.000,-220965
5.492074966430664,756161298,3.113,-9.215,0.227,0.000,0.000,0.000,-220931
5.492172956466675,756165519,3.113,-9.215,0.227,0.000,0.000,0.000,-221540
5.492271184921265,756169740,3.113,-9.215,0.227,0.000,0.000,0.000,-221357
5.4923670291900635,756173960,3.113,-9.215,0.227,0.000,0.000,0.000,-221645
5.492466926574707,756179181,3.113,-9.250,0.266,0.000,0.000,0.000,-220763
5.492563009262085,756181402,3.113,-9.250,0.266,0.000,0.000,0.000,-221590
5.492666006088257,756185623,3.113,-9.250,0.266,0.000,0.000,0.000,-221182
5.492761135101318,756189844,3.113,-9.250,0.266,0.000,0.000,0.000,-221964
5.492856025695801,756194064,3.113,-9.250,0.266,0.000,0.000,0.000,-221408
5.492956161499023,756199285,3.113,-9.250,0.266,0.000,0.000,0.000,-221325
5.493052244186401,756203505,3.113,-9.250,0.266,0.000,0.000,0.000,-221699
5.493150949478149,756207726,3.113,-9.211,0.266,0.000,0.000,0.000,-221685
5.493245840072632,756210947,3.113,-9.211,0.266,0.000,0.000,0.000,-220981
5.493340969085693,756218168,3.113,-9.211,0.266,0.000,0.000,0.000,-220877
5.4934399127960205,756223388,3.113,-9.211,0.266,0.000,0.000,0.000,-221890
5.493535995483398,756227609,3.113,-9.211,0.266,0.000,0.000,0.000,-221039
5.493639945983887,756232829,3.113,-9.211,0.266,0.000,0.000,0.000,-220302
5.49373197555542,756237050,3.113,-9.211,0.266,0.000,0.000,0.000,-221047
5.493828058242798,756242271,3.152,-9.250,0.266,0.000,0.000,0.000,-221811
5.493917942047119,756244492,3.152,-9.250,0.266,0.000,0.000,0.000,-221935
5.494009017944336,756248713,3.152,-9.250,0.266,0.000,0.000,0.000,-221467
5.494105100631714,756252934,3.152,-9.250,0.266,0.000,0.000,0.000,-221026
5.4941980838775635,756256155,3.152,-9.250,0.266,0.000,0.000,0.000,-221278
5.494293928146362,756261376,3.152,-9.250,0.266,0.000,0.000,0.000,-220927
5.4943859577178955,756265597,3.152,-9.250,0.266,0.000,0.000,0.000,-221113
5.494477033615112,756269818,3.113,-9.250,0.266,0.000,0.000,0.000,-220904
5.4945762157440186,756272039,3.113,-9.250,0.266,0.000,0.000,0.000,-221545
5.494678020477295,756276260,3.113,-9.250,0.266,0.000,0.000,0.000,-220984
5.49478006362915,756281481,3.113,-9.250,0.266,0.000,0.000,0.000,-221263
5.494875192642212,756285702,3.113,-9.250,0.266,0.000,0.000,0.000,-221526
5.49497389793396,756289922,3.113,-9.250,0.266,0.000,0.000,0.000,-222132
5.495068073272705,756294143,3.113,-9.250,0.266,0.000,0.000,0.000,-221292
5.495158910751343,756299364,3.152,-9.215,0.227,0.000,0.000,0.000,-220722
5.495258092880249,756301584,3.152,-9.215,0.227,0.000,0.000,0.000,-221932
5.495348930358887,756305805,3.152,-9.215,0.227,0.000,0.000,0.000,-221969
5.495448112487793,756310026,3.152,-9.215,0.227,0.000,0.000,0.000,-221664
5.495539903640747,756314247,3.152,-9.215,0.227,0.000,0.000,0.000,-221094
5.495640993118286,756319468,3.152,-9.215,0.227,0.000,0.000,0.000,-221747
5.49574089050293,756323689,3.152,-9.215,0.227,0.000,0.000,0.000,-222230
5.495833158493042,756327910,3.113,-9.215,0.227,0.000,0.000,0.000,-221331
5.495931148529053,756331131,3.113,-9.215,0.227,0.000,0.000,0.000,-221241
5.496037006378174,756336352,3.113,-9.215,0.227,0.000,0.000,0.000,-220943
5.496140003204346,756340572,3.113,-9.215,0.227,0.000,0.000,0.000,-221325
5.4962310791015625,756344793,3.113,-9.215,0.227,0.000,0.000,0.000,-221687
5.496323108673096,756349016,3.113,-9.215,0.227,0.000,0.000,0.000,-220795
5.496422052383423,756353236,3.113,-9.215,0.227,0.000,0.000,0.000,-221426
5.496514081954956,756358457,3.152,-9.215,0.227,0.000,0.000,0.000,-221647
5.496619939804077,756360678,3.152,-9.215,0.227,0.000,0.000,0.000,-221116
5.496711015701294,756364899,3.152,-9.215,0.227,0.000,0.000,0.000,-221211
5.496812105178833,756369119,3.152,-9.215,0.227,0.000,0.000,0.000,-221896
5.4969048500061035,756372340,3.152,-9.215,0.227,0.000,0.000,0.000,-221933
5.496999263763428,756375560,3.152,-9.215,0.227,0.000,0.000,0.000,-222067
5.497097969055176,756379781,3.113,-9.215,0.187,0.000,0.000,0.000,-221353
5.497189044952393,756382002,3.113,-9.215,0.187,0.000,0.000,0.000,-221108
5.4972920417785645,756386223,3.113,-9.215,0.187,0.000,0.000,0.000,-221348
5.497383117675781,756390443,3.113,-9.215,0.187,0.000,0.000,0.000,-222194
5.497477054595947,756393663,3.113,-9.215,0.187,0.000,0.000,0.000,-221285
5.497574090957642,756398884,3.113,-9.215,0.187,0.000,0.000,0.000,-220952
5.4976701736450195,756402105,3.113,-9.215,0.187,0.000,0.000,0.000,-221208
5.497768878936768,756406325,3.113,-9.215,0.227,0.000,0.000,0.000,-222179
5.497862815856934,756409546,3.113,-9.215,0.227,0.000,0.000,0.000,-221106
5.497959852218628,756414769,3.113,-9.215,0.227,0.000,0.000,0.000,-221627
5.49805212020874,756419990,3.113,-9.215,0.227,0.000,0.000,0.000,-221249
5.498152017593384,756424212,3.113,-9.215,0.227,0.000,0.000,0.000,-221652
5.498247861862183,756428433,3.113,-9.215,0.227,0.000,0.000,0.000,-220881
5.498351097106934,756431653,3.113,-9.215,0.227,0.000,0.000,0.000,-221037
5.498449087142944,756435874,3.113,-9.250,0.266,0.000,0.000,0.000,-221932
5.498542070388794,756439094,3.113,-9.250,0.266,0.000,0.000,0.000,-222049
5.498646974563599,756445314,3.113,-9.250,0.266,0.000,0.000,0.000,-221833
5.498747110366821,756449535,3.113,-9.250,0.266,0.000,0.000,0.000,-221854
5.4988391399383545,756453755,3.113,-9.250,0.266,0.000,0.000,0.000,-221702
5.498934984207153,756458976,3.113,-9.250,0.266,0.000,0.000,0.000,-221294
5.499025821685791,756463197,3.113,-9.250,0.266,0.000,0.000,0.000,-221075
5.499121189117432,756469417,3.152,-9.254,0.187,0.000,0.000,0.000,-221647
5.499212026596069,756472637,3.152,-9.254,0.187,0.000,0.000,0.000,-221909
5.499303817749023,756478858,3.152,-9.254,0.187,0.000,0.000,0.000,-221018
5.499402046203613,756483079,3.152,-9.254,0.187,0.000,0.000,0.000,-221034
5.49949312210083,756486300,3.152,-9.254,0.187,0.000,0.000,0.000,-222190
5.4995880126953125,756490521,3.152,-9.254,0.187,0.000,0.000,0.000,-221939
5.499694108963013,756494741,3.152,-9.254,0.187,0.000,0.000,0.000,-221502
5.499788999557495,756499962,3.113,-9.254,0.227,0.000,0.000,0.000,-221037
5.499879837036133,756502182,3.113,-9.254,0.227,0.000,0.000,0.000,-221237
5.499978065490723,756506403,3.113,-9.254,0.227,0.000,0.000,0.000,-221707
5.500072956085205,756510624,3.113,-9.254,0.227,0.000,0.000,0.000,-221060
5.521975994110107,756513845,3.113,-9.254,0.227,0.000,0.000,0.000,-221167
5.522095203399658,756519066,3.113,-9.254,0.227,0.000,0.000,0.000,-220725
5.522197961807251,756522286,3.113,-9.254,0.227,0.000,0.000,0.000,-222002
5.5223002433776855,756526507,3.113,-9.215,0.227,0.000,0.000,0.000,-220875
5.522411108016968,756529727,3.113,-9.215,0.227,0.000,0.000,0.000,-222037
5.522512197494507,756534947,3.113,-9.215,0.227,0.000,0.000,0.000,-221324
5.522619009017944,756540168,3.113,-9.215,0.227,0.000,0.000,0.000,-221171
5.522720098495483,756544389,3.113,-9.215,0.227,0.000,0.000,0.000,-221586
5.522825002670288,756548610,3.113,-9.215,0.227,0.000,0.000,0.000,-221493
5.5229270458221436,756553830,3.113,-9.215,0.227,0.000,0.000,0.000,-221821
5.5230278968811035,756559051,3.113,-9.172,0.187,0.000,0.000,0.000,-221743
5.52313494682312,756561272,3.113,-9.172,0.187,0.000,0.000,0.000,-220969
5.523236036300659,756565493,3.113,-9.172,0.187,0.000,0.000,0.000,-220863
5.523343086242676,756569714,3.113,-9.172,0.187,0.000,0.000,0.000,-221187
5.523443937301636,756573935,3.113,-9.172,0.187,0.000,0.000,0.000,-221309
5.523545026779175,756579156,3.113,-9.172,0.187,0.000,0.000,0.000,-220878
5.523648977279663,756583376,3.113,-9.172,0.187,0.000,0.000,0.000,-221567
5.523751974105835,756587596,3.152,-9.254,0.227,0.000,0.000,0.000,-221569
5.523849964141846,756590817,3.152,-9.254,0.227,0.000,0.000,0.000,-222251
5.523943901062012,756595038,3.152,-9.254,0.227,0.000,0.000,0.000,-221859
5.5240418910980225,756601259,3.152,-9.254,0.227,0.000,0.000,0.000,-221237
5.524138927459717,756605480,3.152,-9.254,0.227,0.000,0.000,0.000,-221095
5.524234056472778,756610701,3.152,-9.254,0.227,0.000,0.000,0.000,-221443
5.524336099624634,756614921,3.152,-9.254,0.227,0.000,0.000,0.000,-221033
5.5244300365448,756620141,3.113,-9.215,0.227,0.000,0.000,0.000,-221058
5.524529218673706,756622361,3.113,-9.215,0.227,0.000,0.000,0.000,-221677
5.5246241092681885,756626582,3.113,-9.215,0.227,0.000,0.000,0.000,-220611
5.5247180461883545,756630803,3.113,-9.215,0.227,0.000,0.000,0.000,-220588
5.5248188972473145,756634024,3.113,-9.215,0.227,0.000,0.000,0.000,-221073
5.524914026260376,756640245,3.113,-9.215,0.227,0.000,0.000,0.000,-220880
5.525018215179443,756644465,3.113,-9.215,0.227,0.000,0.000,0.000,-221641
5.525113105773926,756649686,3.113,-9.215,0.227,0.000,0.000,0.000,-221005
5.525207042694092,756651907,3.113,-9.215,0.227,0.000,0.000,0.000,-221743
5.525308132171631,756656128,3.113,-9.215,0.227,0.000,0.000,0.000,-222049
5.5254058837890625,756660349,3.113,-9.215,0.227,0.000,0.000,0.000,-221739
5.525634050369263,756664570,3.113,-9.215,0.227,0.000,0.000,0.000,-221156
5.525755167007446,756668790,3.113,-9.215,0.227,0.000,0.000,0.000,-221138
5.525935173034668,756674012,3.113,-9.215,0.227,0.000,0.000,0.000,-221564
5.526032209396362,756679232,3.152,-9.254,0.227,0.000,0.000,0.000,-221974
5.526129245758057,756682453,3.152,-9.254,0.227,0.000,0.000,0.000,-221693
5.526233196258545,756687673,3.152,-9.254,0.227,0.000,0.000,0.000,-221182
5.526327133178711,756691894,3.152,-9.254,0.227,0.000,0.000,0.000,-221231
5.526440858840942,756695115,3.152,-9.254,0.227,0.000,0.000,0.000,-220988
5.526539087295532,756699336,3.152,-9.254,0.227,0.000,0.000,0.000,-220843
5.526640176773071,756702557,3.074,-9.250,0.227,0.000,0.000,0.000,-221020
5.526747226715088,756704777,3.074,-9.250,0.227,0.000,0.000,0.000,-221656
5.52684211730957,756708998,3.074,-9.250,0.227,0.000,0.000,0.000,-221218
5.526943922042847,756713219,3.074,-9.250,0.227,0.000,0.000,0.000,-220662
5.527039051055908,756716439,3.074,-9.250,0.227,0.000,0.000,0.000,-221404
5.527140140533447,756722660,3.074,-9.250,0.227,0.000,0.000,0.000,-222054
5.527238845825195,756726881,3.074,-9.250,0.227,0.000,0.000,0.000,-221425
5.52733302116394,756731102,3.113,-9.254,0.227,0.000,0.000,0.000,-220257
5.527442932128906,756733323,3.113,-9.254,0.227,0.000,0.000,0.000,-221090
5.527537107467651,756738543,3.113,-9.254,0.227,0.000,0.000,0.000,-222056
5.527644872665405,756742764,3.113,-9.254,0.227,0.000,0.000,0.000,-221957
5.527740240097046,756746985,3.113,-9.254,0.227,0.000,0.000,0.000,-221007
5.527836799621582,756751192,3.113,-9.254,0.227,0.000,0.000,0.000,-221007
5.527940034866333,756755412,3.113,-9.254,0.227,0.000,0.000,0.000,-221934
5.5280351638793945,756760633,3.113,-9.215,0.227,0.000,0.000,0.000,-221292
5.528140068054199,756763854,3.113,-9.215,0.227,0.000,0.000,0.000,-220911
5.528235912322998,756769075,3.113,-9.215,0.227,0.000,0.000,0.000,-221455
5.528351068496704,756773296,3.074,-9.211,0.227,0.000,0.000,0.000,-221650
5.528450012207031,756775517,3.074,-9.211,0.227,0.000,0.000,0.000,-220984
5.528547048568726,756779738,3.074,-9.211,0.227,0.000,0.000,0.000,-221030
5.5286571979522705,756783959,3.074,-9.211,0.227,0.000,0.000,0.000,-221069
5.5287511348724365,756787179,3.074,-9.211,0.227,0.000,0.000,0.000,-220993
5.528855085372925,756792399,3.074,-9.211,0.227,0.000,0.000,0.000,-220994
5.528949975967407,756797620,3.113,-9.211,0.266,0.000,0.000,0.000,-221832
5.529064893722534,756800841,3.113,-9.211,0.266,0.000,0.000,0.000,-221730
5.529169082641602,756807062,3.113,-9.211,0.266,0.000,0.000,0.000,-221431
5.529264211654663,756811282,3.113,-9.211,0.266,0.000,0.000,0.000,-221114
5.5293638706207275,756815502,3.113,-9.211,0.266,0.000,0.000,0.000,-221209
5.529458999633789,756821722,3.113,-9.211,0.266,0.000,0.000,0.000,-221592
5.529552221298218,756825943,3.113,-9.211,0.266,0.000,0.000,0.000,-222021
5.529651880264282,756830164,3.113,-9.211,0.266,0.000,0.000,0.000,-221452
5.5297441482543945,756832384,3.113,-9.211,0.266,0.000,0.000,0.000,-222102
5.529841184616089,756837605,3.113,-9.211,0.266,0.000,0.000,0.000,-221741
5.529932022094727,756842826,3.113,-9.211,0.266,0.000,0.000,0.000,-221822
5.530033111572266,756847047,3.113,-9.211,0.266,0.000,0.000,0.000,-220668
5.530127048492432,756852268,3.113,-9.211,0.266,0.000,0.000,0.000,-221760
5.530219078063965,756856489,3.113,-9.211,0.266,0.000,0.000,0.000,-221316
5.530318021774292,756860710,3.152,-9.215,0.227,0.000,0.000,0.000,-221216
5.530411958694458,756862931,3.152,-9.215,0.227,0.000,0.000,0.000,-221079
5.530511140823364,756868152,3.152,-9.215,0.227,0.000,0.000,0.000,-222101
5.530611991882324,756872372,3.152,-9.215,0.227,0.000,0.000,0.000,-221414
5.530703067779541,756876593,3.152,-9.215,0.227,0.000,0.000,0.000,-221569
5.530806064605713,756880814,3.152,-9.215,0.227,0.000,0.000,0.000,-221738
5.530897855758667,756884035,3.074,-9.215,0.266,0.000,0.000,0.000,-220532
5.530997037887573,756887255,3.074,-9.215,0.266,0.000,0.000,0.000,-221255
5.531087160110474,756892476,3.074,-9.215,0.266,0.000,0.000,0.000,-221280
5.531186819076538,756897696,3.074,-9.215,0.266,0.000,0.000,0.000,-220998
5.531281232833862,756901917,3.074,-9.215,0.266,0.000,0.000,0.000,-220674
5.531373023986816,756907138,3.074,-9.215,0.266,0.000,0.000,0.000,-222630
5.531476974487305,756912359,3.074,-9.215,0.266,0.000,0.000,0.000,-221096
5.531569242477417,756916579,3.152,-9.211,0.266,0.000,0.000,0.000,-221292
5.5316689014434814,756919799,3.152,-9.211,0.266,0.000,0.000,0.000,-221627
5.531761884689331,756925020,3.152,-9.211,0.266,0.000,0.000,0.000,-221749
5.531858921051025,756929241,3.152,-9.211,0.266,0.000,0.000,0.000,-221056
5.5319530963897705,756932461,3.152,-9.211,0.266,0.000,0.000,0.000,-220943
5.532043933868408,756936681,3.152,-9.211,0.266,0.000,0.000,0.000,-221872
5.532144069671631,756941902,3.152,-9.211,0.266,0.000,0.000,0.000,-221580
5.5322349071502686,756945122,3.152,-9.215,0.227,0.000,0.000,0.000,-220957
5.532335042953491,756948343,3.152,-9.215,0.227,0.000,0.000,0.000,-221372
5.532425880432129,756954564,3.152,-9.215,0.227,0.000,0.000,0.000,-221599
5.532525062561035,756958785,3.152,-9.215,0.227,0.000,0.000,0.000,-221401
5.532625198364258,756963008,3.152,-9.215,0.227,0.000,0.000,0.000,-220992
5.532718181610107,756967228,3.152,-9.215,0.227,0.000,0.000,0.000,-221330
5.532816171646118,756973449,3.152,-9.215,0.227,0.000,0.000,0.000,-221285
5.532907962799072,756976670,3.152,-9.215,0.227,0.000,0.000,0.000,-221746
5.533009052276611,756979891,3.152,-9.215,0.227,0.000,0.000,0.000,-221672
5.5331079959869385,756986112,3.152,-9.215,0.227,0.000,0.000,0.000,-221151
5.533199071884155,756990333,3.152,-9.215,0.227,0.000,0.000,0.000,-221770
5.533295154571533,756994554,3.152,-9.215,0.227,0.000,0.000,0.000,-222049
5.533389091491699,756999774,3.152,-9.215,0.227,0.000,0.000,0.000,-221020
5.555375099182129,757003994,3.152,-9.215,0.227,0.000,0.000,0.000,-222377
5.555493116378784,757008215,3.113,-9.215,0.227,0.000,0.000,0.000,-221520
5.55560302734375,757011435,3.113,-9.215,0.227,0.000,0.000,0.000,-221409
5.555711984634399,757017656,3.113,-9.215,0.227,0.000,0.000,0.000,-221706
5.5558130741119385,757021877,3.113,-9.215,0.227,0.000,0.000,0.000,-222040
5.5559210777282715,757025098,3.113,-9.215,0.227,0.000,0.000,0.000,-221898
5.556020975112915,757029318,3.113,-9.215,0.227,0.000,0.000,0.000,-222092
5.556128978729248,757034539,3.113,-9.215,0.227,0.000,0.000,0.000,-221420
5.556232929229736,757039759,3.152,-9.215,0.187,0.000,0.000,0.000,-221090
5.556333065032959,757042980,3.152,-9.215,0.187,0.000,0.000,0.000,-220994
5.556442022323608,757048203,3.152,-9.215,0.187,0.000,0.000,0.000,-220539
5.556541919708252,757053424,3.152,-9.215,0.187,0.000,0.000,0.000,-221899
5.556657791137695,757057645,3.152,-9.215,0.187,0.000,0.000,0.000,-222109
5.5567591190338135,757062865,3.152,-9.215,0.187,0.000,0.000,0.000,-221177
5.55686092376709,757066086,3.152,-9.215,0.187,0.000,0.000,0.000,-221985
5.556968927383423,757070307,3.152,-9.254,0.227,0.000,0.000,0.000,-221796
5.557080030441284,757072527,3.152,-9.254,0.227,0.000,0.000,0.000,-221009
5.557190895080566,757076748,3.152,-9.254,0.227,0.000,0.000,0.000,-221497
5.557292938232422,757081954,3.152,-9.254,0.227,0.000,0.000,0.000,-221497
5.55739688873291,757086174,3.152,-9.254,0.227,0.000,0.000,0.000,-221048
5.557499170303345,757090395,3.152,-9.254,0.227,0.000,0.000,0.000,-221486
5.557600021362305,757094615,3.152,-9.254,0.227,0.000,0.000,0.000,-221667
5.557705879211426,757099835,3.113,-9.215,0.227,0.000,0.000,0.000,-220814
5.557805061340332,757102056,3.113,-9.215,0.227,0.000,0.000,0.000,-221707
5.557920932769775,757106277,3.113,-9.215,0.227,0.000,0.000,0.000,-221040
5.558021068572998,757110498,3.113,-9.215,0.227,0.000,0.000,0.000,-221342
5.558120965957642,757114719,3.113,-9.215,0.227,0.000,0.000,0.000,-220921
5.558225870132446,757119939,3.113,-9.215,0.227,0.000,0.000,0.000,-221438
5.558326959609985,757124160,3.113,-9.215,0.227,0.000,0.000,0.000,-220873
5.5584330558776855,757128381,3.152,-9.211,0.266,0.000,0.000,0.000,-221002
5.558534860610962,757131602,3.152,-9.211,0.266,0.000,0.000,0.000,-221575
5.558638095855713,757136823,3.152,-9.211,0.266,0.000,0.000,0.000,-222001
5.558739900588989,757141044,3.152,-9.211,0.266,0.000,0.000,0.000,-221007
5.558840036392212,757145264,3.152,-9.211,0.266,0.000,0.000,0.000,-220805
5.558944940567017,757149485,3.152,-9.211,0.266,0.000,0.000,0.000,-221479
5.559046030044556,757153705,3.152,-9.211,0.266,0.000,0.000,0.000,-221263
5.559146881103516,757157925,3.152,-9.254,0.187,0.000,0.000,0.000,-221702
5.5592429637908936,757160146,3.152,-9.254,0.187,0.000,0.000,0.000,-221206
5.559337854385376,757165367,3.152,-9.254,0.187,0.000,0.000,0.000,-221222
5.559439182281494,757169588,3.152,-9.254,0.187,0.000,0.000,0.000,-220920
5.559534072875977,757172809,3.152,-9.254,0.187,0.000,0.000,0.000,-220911
5.559645891189575,757177029,3.152,-9.254,0.187,0.000,0.000,0.000,-221545
5.559741020202637,757182249,3.152,-9.254,0.187,0.000,0.000,0.000,-221514
5.55984091758728,757186470,3.152,-9.172,0.227,0.000,0.000,0.000,-221739
5.559937000274658,757189691,3.152,-9.172,0.227,0.000,0.000,0.000,-221684
5.560030937194824,757194912,3.152,-9.172,0.227,0.000,0.000,0.000,-221600
5.560134172439575,757200133,3.152,-9.172,0.227,0.000,0.000,0.000,-221234
5.560229063034058,757204354,3.152,-9.172,0.227,0.000,0.000,0.000,-222071
5.56047511100769,757208575,3.152,-9.172,0.227,0.000,0.000,0.000,-221665
5.560615062713623,757212796,3.152,-9.172,0.227,0.000,0.000,0.000,-221502
5.560708999633789,757217016,3.113,-9.211,0.266,0.000,0.000,0.000,-220894
5.560812950134277,757220237,3.113,-9.211,0.266,0.000,0.000,0.000,-221935
5.560909986495972,757227458,3.113,-9.211,0.266,0.000,0.000,0.000,-221478
5.561010837554932,757232678,3.113,-9.211,0.266,0.000,0.000,0.000,-221399
5.56110692024231,757237899,3.152,-9.215,0.227,0.000,0.000,0.000,-221520
5.5612030029296875,757241120,3.152,-9.215,0.227,0.000,0.000,0.000,-222097
5.561304092407227,757247341,3.152,-9.215,0.227,0.000,0.000,0.000,-221507
5.561398983001709,757251562,3.152,-9.215,0.227,0.000,0.000,0.000,-221872
5.561500072479248,757255783,3.152,-9.215,0.227,0.000,0.000,0.000,-221330
5.56159782409668,757260004,3.152,-9.215,0.227,0.000,0.000,0.000,-221094
5.561704874038696,757264224,3.152,-9.211,0.266,0.000,0.000,0.000,-220534
5.561800003051758,757266444,3.152,-9.211,0.266,0.000,0.000,0.000,-221313
5.561894178390503,757271665,3.152,-9.211,0.266,0.000,0.000,0.000,-221295
5.561996936798096,757275886,3.152,-9.211,0.266,0.000,0.000,0.000,-220921
5.562092065811157,757280107,3.152,-9.211,0.266,0.000,0.000,0.000,-221404
5.562220096588135,757285328,3.152,-9.211,0.266,0.000,0.000,0.000,-221269
5.562315940856934,757289549,3.152,-9.211,0.266,0.000,0.000,0.000,-221387
5.562411069869995,757293770,3.113,-9.172,0.227,0.000,0.000,0.000,-220737
5.562515020370483,757296992,3.113,-9.172,0.227,0.000,0.000,0.000,-221111
5.562618017196655,757303213,3.113,-9.172,0.227,0.000,0.000,0.000,-221289
5.562718868255615,757307434,3.113,-9.172,0.227,0.000,0.000,0.000,-222084
5.562814950942993,757312655,3.113,-9.172,0.227,0.000,0.000,0.000,-221412
5.5629191398620605,757316876,3.113,-9.172,0.227,0.000,0.000,0.000,-220892
5.563015937805176,757322097,3.113,-9.172,0.227,0.000,0.000,0.000,-221214
5.56311297416687,757326317,3.152,-9.211,0.266,0.000,0.000,0.000,-221695
5.563220024108887,757329522,3.152,-9.211,0.266,0.000,0.000,0.000,-221695
5.5633158683776855,757334742,3.152,-9.211,0.266,0.000,0.000,0.000,-220689
5.5634191036224365,757339963,3.152,-9.211,0.266,0.000,0.000,0.000,-221837
5.5635151863098145,757345183,3.152,-9.211,0.266,0.000,0.000,0.000,-221590
5.563619136810303,757350403,3.113,-9.215,0.227,0.000,0.000,0.000,-221507
5.5637171268463135,757353624,3.113,-9.215,0.227,0.000,0.000,0.000,-222290
5.563812017440796,757359844,3.113,-9.215,0.227,0.000,0.000,0.000,-221069
5.563915967941284,757364065,3.113,-9.215,0.227,0.000,0.000,0.000,-221950
5.564012050628662,757368286,3.113,-9.215,0.227,0.000,0.000,0.000,-221676
5.564115047454834,757372507,3.113,-9.215,0.227,0.000,0.000,0.000,-220966
5.564210891723633,757376727,3.113,-9.215,0.227,0.000,0.000,0.000,-221766
5.5643088817596436,757381948,3.074,-9.176,0.227,0.000,0.000,0.000,-220821
5.564412832260132,757385168,3.074,-9.176,0.227,0.000,0.000,0.000,-220806
5.56450891494751,757390389,3.074,-9.176,0.227,0.000,0.000,0.000,-221149
5.564619064331055,757395610,3.074,-9.176,0.227,0.000,0.000,0.000,-221005
5.5647149085998535,757399831,3.074,-9.176,0.227,0.000,0.000,0.000,-221761
5.564821004867554,757404052,3.074,-9.176,0.227,0.000,0.000,0.000,-221475
5.564915895462036,757407273,3.074,-9.176,0.227,0.000,0.000,0.000,-221755
5.565014123916626,757411494,3.152,-9.215,0.227,0.000,0.000,0.000,-221114
5.565109014511108,757414714,3.152,-9.215,0.227,0.000,0.000,0.000,-221319
5.565200090408325,757420934,3.152,-9.215,0.227,0.000,0.000,0.000,-220912
5.565300941467285,757425154,3.152,-9.215,0.227,0.000,0.000,0.000,-221532
5.5653932094573975,757429375,3.152,-9.215,0.227,0.000,0.000,0.000,-220919
5.565485000610352,757433596,3.152,-9.215,0.227,0.000,0.000,0.000,-221479
5.565585136413574,757437817,3.152,-9.215,0.227,0.000,0.000,0.000,-220857
5.565675973892212,757443037,3.113,-9.172,0.227,0.000,0.000,0.000,-221370
5.56577205657959,757446257,3.113,-9.172,0.227,0.000,0.000,0.000,-221151
5.565863132476807,757451478,3.113,-9.172,0.227,0.000,0.000,0.000,-220900
5.565962076187134,757455699,3.113,-9.172,0.227,0.000,0.000,0.000,-221476
5.566053152084351,757460920,3.113,-9.172,0.227,0.000,0.000,0.000,-220861
5.566148042678833,757465141,3.113,-9.172,0.227,0.000,0.000,0.000,-221065
5.566247224807739,757469361,3.113,-9.172,0.227,0.000,0.000,0.000,-222357
5.56633996963501,757475582,3.152,-9.211,0.266,0.000,0.000,0.000,-221260
5.566442012786865,757478802,3.152,-9.211,0.266,0.000,0.000,0.000,-221161
5.566534042358398,757485023,3.152,-9.211,0.266,0.000,0.000,0.000,-221356
5.566632986068726,757489243,3.152,-9.211,0.266,0.000,0.000,0.000,-221383
5.566731929779053,757493464,3.152,-9.211,0.266,0.000,0.000,0.000,-221999
5.59049916267395,757497685,3.152,-9.211,0.266,0.000,0.000,0.000,-221341
5.59061598777771,757501906,3.152,-9.211,0.266,0.000,0.000,0.000,-221267
5.590718030929565,757506127,3.113,-9.215,0.227,0.000,0.000,0.000,-221056
5.5908238887786865,757509347,3.113,-9.215,0.227,0.000,0.000,0.000,-221448
5.590924024581909,757515568,3.113,-9.215,0.227,0.000,0.000,0.000,-221297
5.5910258293151855,757520789,3.113,-9.215,0.227,0.000,0.000,0.000,-221626
5.591132164001465,757525009,3.113,-9.215,0.227,0.000,0.000,0.000,-221739
5.591232061386108,757529229,3.113,-9.215,0.227,0.000,0.000,0.000,-220805
5.591339111328125,757533450,3.113,-9.215,0.227,0.000,0.000,0.000,-221211
5.5914390087127686,757537671,3.152,-9.215,0.227,0.000,0.000,0.000,-221577
5.591545104980469,757539891,3.152,-9.215,0.227,0.000,0.000,0.000,-221787
5.591645956039429,757545111,3.152,-9.215,0.227,0.000,0.000,0.000,-221471
5.591746091842651,757549332,3.152,-9.215,0.227,0.000,0.000,0.000,-220947
5.59185791015625,757553553,3.152,-9.215,0.227,0.000,0.000,0.000,-221662
5.591968059539795,757559774,3.152,-9.215,0.227,0.000,0.000,0.000,-221904
5.592077016830444,757563995,3.152,-9.215,0.227,0.000,0.000,0.000,-220550
5.592177867889404,757568216,3.152,-9.215,0.227,0.000,0.000,0.000,-221686
5.592280149459839,757570437,3.152,-9.215,0.227,0.000,0.000,0.000,-221548
