pc_time_s,teensy_time_us,ax,ay,az,gx,gy,gz,load_raw
2.214416209,1099973570,3.266,-9.133,-0.656,0.000,0.000,0.000,-222454
2.217037959,1099976047,3.266,-9.098,-0.730,0.000,0.000,0.000,-222675
2.219998667,1099979285,3.266,-9.098,-0.730,0.000,0.000,0.000,-222995
2.222220417,1099981490,3.266,-9.098,-0.730,0.018,0.016,0.004,-222995
2.233564959,1099985710,3.266,-9.098,-0.730,0.010,-0.002,-0.006,-222821
2.233680459,1099988931,3.227,-9.059,-0.691,0.010,-0.002,-0.006,-222270
2.234923417,1099994152,3.227,-9.059,-0.691,0.010,-0.002,-0.002,-223289
2.239093667,1099998373,3.227,-9.059,-0.691,-0.002,0.010,0.002,-223385
2.242414334,1100001594,3.227,-9.059,-0.691,0.002,-0.014,-0.006,-222388
2.246613584,1100005815,3.227,-9.059,-0.691,0.000,-0.008,0.002,-222151
2.250751959,1100010036,3.266,-9.133,-0.617,0.000,-0.008,0.002,-222239
2.253975417,1100013257,3.266,-9.133,-0.617,-0.002,-0.002,0.018,-222170
2.26696475,1100018478,3.266,-9.133,-0.617,0.008,-0.006,0.025,-222685
2.267041834,1100023699,3.266,-9.133,-0.617,-0.004,-0.002,-0.008,-222253
2.268722792,1100027920,3.266,-9.133,-0.617,0.002,-0.006,0.006,-222486
2.275134459,1100034141,3.266,-9.133,-0.617,-0.002,0.008,-0.008,-222474
2.279169709,1100038362,3.266,-9.133,-0.617,-0.006,-0.006,-0.008,-222537
2.28338425,1100042583,3.266,-9.055,-0.730,-0.006,-0.006,-0.008,-221776
2.285546417,1100044804,3.266,-9.055,-0.730,-0.010,0.000,0.004,-222380
2.300464167,1100049025,3.266,-9.055,-0.730,0.008,0.000,-0.002,-222801
2.300566125,1100054246,3.266,-9.055,-0.730,0.004,0.004,-0.008,-221163
2.300667292,1100058467,3.266,-9.055,-0.730,0.006,-0.008,0.000,-221773
2.303465042,1100062690,3.266,-9.098,-0.730,0.006,-0.008,0.000,-222067
2.30771225,1100066911,3.266,-9.098,-0.730,0.014,-0.002,0.006,-222423
2.311874375,1100071132,3.266,-9.098,-0.730,0.004,0.006,-0.002,-222648
2.316138084,1100075353,3.266,-9.098,-0.730,0.002,0.000,-0.006,-222353
2.320355709,1100079574,3.266,-9.098,-0.730,0.006,0.000,0.016,-222021
2.333720417,1100083795,3.266,-9.098,-0.730,0.006,0.004,0.000,-222200
2.333823875,1100088016,3.266,-9.098,-0.691,0.006,0.004,0.000,-222140
2.333956292,1100090237,3.266,-9.098,-0.691,0.004,-0.004,-0.006,-222168
2.336241417,1100095458,3.266,-9.098,-0.691,-0.002,0.002,0.000,-221893
2.340488792,1100099679,3.266,-9.098,-0.691,0.008,-0.006,0.000,-222832
2.34499925,1100103900,3.266,-9.098,-0.691,0.004,-0.002,-0.010,-221475
2.348862,1100108121,3.266,-9.098,-0.691,0.004,-0.006,-0.008,-222641
2.354056709,1100113342,3.266,-9.098,-0.691,-0.004,0.014,-0.010,-222625
2.366881,1100116563,3.266,-9.137,-0.691,-0.004,0.014,-0.010,-221411
2.366988625,1100119784,3.266,-9.137,-0.691,-0.004,-0.006,0.006,-222220
2.36708825,1100126005,3.266,-9.137,-0.691,0.010,0.016,0.006,-222140
2.371006292,1100130226,3.266,-9.137,-0.691,0.016,-0.004,0.002,-222207
2.375229167,1100134447,3.266,-9.137,-0.691,-0.006,-0.008,0.006,-221960
2.379710625,1100138668,3.266,-9.137,-0.691,0.004,-0.006,0.000,-222629
2.384664417,1100143889,3.266,-9.137,-0.691,-0.018,0.002,0.012,-221948
2.388858584,1100148110,3.266,-9.094,-0.656,-0.018,0.002,0.012,-222429
2.392205875,1100151331,3.266,-9.094,-0.656,-0.014,-0.004,-0.006,-222513
2.400231125,1100156552,3.266,-9.094,-0.656,0.006,0.004,-0.006,-222349
2.402641709,1100161773,3.266,-9.094,-0.656,0.002,-0.004,-0.002,-222829
2.406826292,1100165994,3.266,-9.094,-0.656,0.000,0.000,-0.012,-222851
2.41205925,1100171215,3.266,-9.094,-0.656,0.002,0.004,-0.008,-222502
2.416192292,1100175436,3.266,-9.094,-0.656,0.008,0.002,0.010,-222238
2.420502875,1100179657,3.227,-9.059,-0.730,0.008,0.002,0.010,-222075
2.423646792,1100182878,3.227,-9.059,-0.730,-0.002,0.008,0.012,-222406
2.433558042,1100189099,3.227,-9.059,-0.730,-0.002,0.000,0.006,-222795
2.434001084,1100193320,3.227,-9.059,-0.730,0.000,-0.004,0.002,-222574
2.437419584,1100196541,3.227,-9.059,-0.730,0.008,0.002,0.000,-222499
2.441541167,1100200762,3.227,-9.059,-0.730,-0.002,0.000,0.004,-221487
2.446782584,1100205983,3.227,-9.059,-0.730,-0.006,-0.004,0.014,-222221
2.449996917,1100209204,3.227,-9.098,-0.656,-0.006,-0.004,0.014,-222374
2.453186792,1100212425,3.227,-9.098,-0.656,0.010,0.004,-0.008,-223192
2.466893834,1100218646,3.227,-9.098,-0.656,-0.002,0.006,0.023,-222268
2.466969334,1100222867,3.227,-9.098,-0.656,-0.010,-0.002,0.004,-221751
2.467043709,1100226088,3.227,-9.098,-0.656,-0.002,0.000,0.010,-222771
2.472813042,1100231310,3.227,-9.098,-0.656,-0.004,-0.014,0.000,-222212
2.47733075,1100236531,3.266,-9.098,-0.691,-0.004,-0.014,0.000,-222707
2.480660584,1100239752,3.266,-9.098,-0.691,-0.006,-0.004,-0.002,-222316
2.485738542,1100244973,3.266,-9.098,-0.691,-0.008,-0.002,-0.002,-222463
2.490002959,1100249194,3.266,-9.098,-0.691,-0.004,0.000,0.004,-222101
2.500308375,1100254415,3.266,-9.098,-0.691,0.002,0.004,0.010,-222443
2.500382,1100258636,3.266,-9.098,-0.691,-0.010,0.002,0.002,-221703
2.504642917,1100263857,3.266,-9.098,-0.691,0.010,-0.002,-0.006,-222781
2.508904084,1100268078,3.266,-9.098,-0.691,0.010,-0.002,-0.006,-222785
2.512064417,1100271299,3.266,-9.098,-0.691,0.004,0.010,0.006,-222039
2.517267042,1100276521,3.266,-9.098,-0.691,-0.002,0.000,0.006,-222646
2.522493167,1100281742,3.266,-9.098,-0.691,-0.002,-0.004,0.006,-222225
2.53361625,1100285963,3.266,-9.098,-0.691,-0.014,-0.004,0.004,-222058
2.533724292,1100291184,3.266,-9.098,-0.691,0.008,0.000,0.006,-222124
2.537204334,1100296405,3.266,-9.098,-0.691,-0.006,0.002,-0.002,-222802
2.541383084,1100300626,3.227,-9.137,-0.656,-0.006,0.002,-0.002,-222591
2.544637375,1100303847,3.227,-9.137,-0.656,0.002,-0.002,0.004,-222360
2.549829542,1100309068,3.227,-9.137,-0.656,0.006,0.004,-0.004,-222310
2.5541335,1100313274,3.227,-9.137,-0.656,0.000,-0.002,-0.002,-222310
2.557268459,1100316494,3.227,-9.137,-0.656,-0.002,0.004,0.004,-222250
2.567203792,1100320715,3.227,-9.137,-0.656,0.002,-0.006,-0.010,-222691
2.567312792,1100325936,3.227,-9.137,-0.656,0.000,-0.004,0.014,-222255
2.569933167,1100329157,3.266,-9.098,-0.691,0.000,-0.004,0.014,-222302
2.573206709,1100332378,3.266,-9.098,-0.691,0.018,0.000,-0.006,-221846
2.579419042,1100338599,3.266,-9.098,-0.691,0.002,-0.002,-0.002,-222433
2.583628417,1100342820,3.266,-9.098,-0.691,0.004,0.002,-0.002,-222225
2.587878834,1100347041,3.266,-9.098,-0.691,0.004,-0.006,0.010,-222863
2.592061959,1100351262,3.266,-9.098,-0.691,0.002,0.002,-0.002,-221914
2.600558,1100356483,3.266,-9.098,-0.691,0.002,-0.004,0.010,-222622
2.601509584,1100360704,3.227,-9.133,-0.691,0.002,-0.004,0.010,-222906
2.604707084,1100363925,3.227,-9.133,-0.691,0.004,-0.002,-0.004,-222293
2.609988959,1100369146,3.227,-9.133,-0.691,-0.006,-0.004,-0.006,-222473
2.615175292,1100374367,3.227,-9.133,-0.691,-0.004,0.012,0.000,-222803
2.619352375,1100378588,3.227,-9.133,-0.691,0.004,0.000,0.010,-222332
2.623681042,1100382809,3.227,-9.133,-0.691,0.008,-0.004,0.004,-222453
2.626776917,1100386030,3.227,-9.133,-0.691,0.002,0.006,0.014,-222441
2.630976542,1100390251,3.227,-9.094,-0.730,0.002,0.006,0.014,-223094
2.634203667,1100393475,3.227,-9.094,-0.730,-0.004,-0.008,-0.012,-222243
2.640428625,1100399696,3.227,-9.094,-0.730,-0.008,0.004,-0.002,-222699
2.644793917,1100403917,3.227,-9.094,-0.730,0.006,0.000,0.008,-221792
2.648933917,1100408138,3.227,-9.094,-0.730,-0.004,-0.008,-0.006,-222758
2.654171042,1100413359,3.227,-9.094,-0.730,0.006,-0.004,-0.014,-222716
2.658489125,1100417580,3.227,-9.094,-0.730,0.002,0.004,-0.002,-222640
2.662566459,1100421801,3.266,-9.098,-0.691,0.002,0.004,-0.002,-221837
2.66577925,1100425022,3.266,-9.098,-0.691,0.000,-0.004,-0.002,-222205
2.67099575,1100430243,3.266,-9.098,-0.691,0.000,0.000,0.000,-222412
2.676281209,1100435464,3.266,-9.098,-0.691,-0.004,-0.004,0.002,-223128
2.680544917,1100439685,3.266,-9.098,-0.691,-0.002,-0.008,-0.002,-222651
2.685680542,1100444906,3.266,-9.098,-0.691,-0.006,0.012,0.000,-222561
2.690021917,1100449127,3.266,-9.098,-0.691,0.008,-0.002,-0.002,-221980
2.695170875,1100454348,3.227,-9.137,-0.656,0.008,-0.002,-0.002,-222090
2.697375584,1100456569,3.227,-9.137,-0.656,0.006,0.004,-0.010,-222098
2.701598667,1100460790,3.227,-9.137,-0.656,0.004,0.000,0.004,-223492
2.705853417,1100465011,3.227,-9.137,-0.656,0.002,0.004,0.004,-222002
2.709120292,1100468232,3.227,-9.137,-0.656,0.004,0.004,-0.006,-222857
2.715344875,1100474453,3.227,-9.137,-0.656,0.008,-0.002,0.004,-222627
2.719485917,1100478674,3.227,-9.137,-0.656,-0.006,0.006,0.002,-222428
2.724800917,1100483895,3.227,-9.094,-0.730,-0.006,0.006,0.002,-222184
2.726951042,1100486116,3.227,-9.094,-0.730,-0.004,0.004,0.004,-221737
2.733148875,1100492337,3.227,-9.094,-0.730,-0.010,-0.012,0.000,-222459
2.737410959,1100496558,3.227,-9.094,-0.730,-0.004,-0.002,0.002,-221612
2.742687667,1100501779,3.227,-9.094,-0.730,0.008,-0.008,-0.012,-222737
2.746883375,1100506000,3.227,-9.094,-0.730,-0.010,0.002,0.000,-221851
2.751264667,1100510221,3.227,-9.094,-0.730,0.006,0.002,0.010,-222885
2.755265084,1100514442,3.266,-9.137,-0.691,0.006,0.002,0.010,-221885
2.757447375,1100516663,3.266,-9.137,-0.691,0.004,0.000,0.002,-222676
2.763031334,1100521884,3.266,-9.137,-0.691,0.006,0.000,0.000,-221784
2.766920042,1100526105,3.266,-9.137,-0.691,0.006,-0.008,0.002,-222164
2.770182959,1100529326,3.266,-9.137,-0.691,0.000,0.000,0.004,-222602
2.774748917,1100533547,3.266,-9.137,-0.691,-0.008,0.000,-0.010,-222039
2.779658334,1100538768,3.266,-9.137,-0.691,-0.008,-0.004,0.004,-222111
2.782798834,1100541989,3.305,-9.133,-0.617,-0.008,-0.004,0.004,-222145
2.787067625,1100546210,3.305,-9.133,-0.617,0.004,-0.008,0.000,-222651
2.790176459,1100549431,3.227,-9.137,-0.656,0.004,-0.008,0.000,-221931
2.795524292,1100554652,3.227,-9.137,-0.656,0.004,-0.002,0.002,-221978
2.799715125,1100558873,3.227,-9.137,-0.656,0.002,-0.002,0.004,-222411
2.803989334,1100563094,3.227,-9.137,-0.656,0.008,-0.002,0.004,-222603
2.808184834,1100567315,3.227,-9.137,-0.656,-0.004,0.008,0.000,-222275
2.812393042,1100571536,3.227,-9.137,-0.656,0.016,0.008,0.012,-222216
2.817584542,1100576757,3.227,-9.094,-0.730,0.016,0.008,0.012,-221982
2.82098075,1100579978,3.227,-9.094,-0.730,-0.004,-0.006,0.000,-222459
2.826099167,1100585199,3.227,-9.094,-0.730,-0.002,0.000,0.004,-222314
2.830290334,1100589420,3.227,-9.094,-0.730,-0.004,0.000,0.014,-221975
2.835557084,1100594641,3.227,-9.094,-0.730,0.004,0.004,0.000,-222878
2.839837834,1100598862,3.227,-9.094,-0.730,-0.002,-0.008,0.012,-222197
2.844433375,1100603083,3.227,-9.094,-0.730,-0.004,-0.006,-0.004,-221625
2.847203959,1100606305,3.266,-9.059,-0.656,-0.004,-0.006,-0.004,-222653
2.850431917,1100609525,3.266,-9.059,-0.656,0.002,-0.002,0.010,-222360
2.85664375,1100615746,3.266,-9.059,-0.656,0.002,-0.002,0.010,-222446
2.860988084,1100619969,3.266,-9.059,-0.656,0.000,-0.004,0.004,-222681
2.865062375,1100624190,3.266,-9.059,-0.656,0.006,0.002,-0.002,-223254
2.86927225,1100628411,3.266,-9.059,-0.656,-0.008,-0.008,-0.016,-222279
2.874708167,1100633632,3.266,-9.059,-0.656,-0.004,-0.002,-0.012,-222356
2.877799334,1100636853,3.227,-9.133,-0.691,-0.004,-0.002,-0.012,-222708
2.880033125,1100639074,3.227,-9.133,-0.691,0.002,0.004,0.002,-222399
2.884174834,1100643295,3.227,-9.133,-0.691,0.002,0.008,-0.010,-221708
2.888367334,1100647517,3.227,-9.133,-0.691,0.008,-0.002,0.000,-222065
2.8925915,1100651738,3.227,-9.133,-0.691,-0.002,0.000,0.012,-222095
2.898084834,1100656959,3.227,-9.133,-0.691,0.006,0.004,-0.010,-222642
2.903250417,1100662180,3.227,-9.133,-0.691,0.006,0.000,0.004,-222999
2.907494625,1100666401,3.266,-9.098,-0.730,0.006,0.000,0.004,-222266
2.909605667,1100668622,3.266,-9.098,-0.730,0.000,0.002,0.004,-222530
2.915715625,1100674843,3.266,-9.098,-0.730,-0.006,0.004,0.008,-222254
2.919930167,1100679064,3.266,-9.098,-0.730,-0.010,0.006,0.006,-222805
2.924518959,1100683285,3.266,-9.098,-0.730,0.006,0.004,-0.004,-221765
2.928708417,1100687506,3.266,-9.098,-0.730,-0.004,-0.004,-0.002,-222598
2.932584459,1100691727,3.266,-9.098,-0.730,0.004,0.004,-0.002,-222296
2.937999,1100696948,3.266,-9.094,-0.656,0.004,0.004,-0.002,-221704
2.941459875,1100700169,3.266,-9.094,-0.656,-0.006,0.008,0.000,-222325
2.947483584,1100706390,3.266,-9.094,-0.656,0.002,0.006,0.012,-221781
2.951518667,1100710611,3.266,-9.094,-0.656,0.008,-0.008,-0.008,-222802
2.9560285,1100714832,3.266,-9.094,-0.656,0.008,-0.012,0.002,-222580
2.960648917,1100719053,3.266,-9.094,-0.656,0.002,0.004,0.000,-222519
2.964401625,1100723274,3.266,-9.094,-0.656,0.012,-0.004,0.004,-222397
2.969645459,1100728495,3.227,-9.094,-0.691,0.012,-0.004,0.004,-222894
2.972573125,1100731716,3.227,-9.094,-0.691,-0.008,0.008,0.004,-222265
2.97899975,1100737937,3.227,-9.094,-0.691,-0.004,-0.010,-0.002,-222124
2.9841475,1100743158,3.227,-9.094,-0.691,0.010,0.004,-0.002,-221789
2.988369542,1100747379,3.227,-9.094,-0.691,-0.004,0.000,-0.004,-222196
2.993718584,1100752600,3.227,-9.094,-0.691,-0.004,0.000,-0.004,-222032
2.99795425,1100756821,3.227,-9.094,-0.691,0.004,0.004,0.016,-221955
3.002589792,1100761042,3.266,-9.098,-0.691,0.004,0.004,0.016,-222771
3.005204834,1100764263,3.266,-9.098,-0.691,-0.008,-0.004,0.012,-222246
3.010358667,1100769484,3.266,-9.098,-0.691,-0.008,0.012,0.006,-221672
3.015587625,1100774705,3.266,-9.098,-0.691,0.002,-0.004,0.006,-222903
3.019798375,1100778926,3.266,-9.098,-0.691,0.004,0.000,0.008,-223281
3.0240435,1100783147,3.266,-9.098,-0.691,0.006,0.000,-0.006,-222046
3.028248875,1100787368,3.266,-9.098,-0.691,0.006,-0.002,0.004,-221468
3.032477667,1100791589,3.227,-9.094,-0.691,0.006,-0.002,0.004,-222649
3.03473275,1100793810,3.227,-9.094,-0.691,0.004,0.000,-0.006,-222755
3.03997875,1100799031,3.227,-9.094,-0.691,-0.010,-0.002,0.006,-222504
3.044167834,1100803252,3.227,-9.094,-0.691,0.006,-0.002,0.010,-221141
3.047327792,1100806473,3.227,-9.094,-0.691,-0.010,0.000,0.004,-222328
3.05156225,1100810694,3.227,-9.094,-0.691,-0.002,-0.006,0.012,-222705
3.055790584,1100814915,3.227,-9.094,-0.691,-0.002,0.006,0.004,-222458
3.059971084,1100819136,3.227,-9.133,-0.691,-0.002,0.006,0.004,-222590
3.063219,1100822357,3.227,-9.133,-0.691,-0.010,0.000,-0.006,-221994
3.069452584,1100828578,3.227,-9.133,-0.691,0.010,-0.006,-0.008,-222513
3.074676625,1100833784,3.227,-9.133,-0.691,-0.006,0.006,0.000,-222513
3.079888959,1100839004,3.227,-9.133,-0.691,0.004,0.002,-0.002,-222588
3.085225542,1100844225,3.227,-9.133,-0.691,-0.014,-0.004,-0.010,-222938
3.089355042,1100848446,3.227,-9.133,-0.691,0.006,0.002,0.006,-222961
3.094539709,1100853667,3.266,-9.137,-0.691,0.006,0.002,0.006,-222069
3.097823084,1100856888,3.266,-9.137,-0.691,0.004,0.010,0.004,-222727
3.10314325,1100862109,3.266,-9.137,-0.691,-0.006,-0.004,0.002,-221792
3.107269709,1100866330,3.266,-9.137,-0.691,0.000,-0.002,0.002,-221886
3.110423709,1100869551,3.266,-9.137,-0.691,0.006,0.004,0.000,-222179
3.115647875,1100874772,3.266,-9.137,-0.691,0.006,-0.004,0.018,-222911
3.119876709,1100878993,3.266,-9.137,-0.691,-0.008,0.010,0.002,-223035
3.123089417,1100882214,3.266,-9.098,-0.691,-0.008,0.010,0.002,-221619
3.128344917,1100887435,3.266,-9.098,-0.691,-0.006,0.006,0.004,-222632
3.132593792,1100891656,3.266,-9.098,-0.691,-0.002,-0.004,0.004,-222031
3.137761959,1100896877,3.266,-9.098,-0.691,0.006,0.000,-0.006,-221677
3.141939709,1100901098,3.266,-9.098,-0.691,0.002,0.004,0.002,-222009
3.146161292,1100905319,3.266,-9.098,-0.691,0.012,0.006,0.002,-222627
3.150448084,1100909540,3.266,-9.094,-0.656,0.012,0.006,0.002,-222423
3.153688375,1100912761,3.266,-9.094,-0.656,-0.002,0.010,0.023,-221891
3.159929792,1100918982,3.266,-9.094,-0.656,-0.002,-0.002,-0.008,-222581
3.165440959,1100924203,3.266,-9.094,-0.656,-0.004,0.008,-0.002,-222194
3.169370625,1100928424,3.266,-9.094,-0.656,0.006,-0.006,-0.002,-223046
3.175489334,1100934645,3.266,-9.094,-0.656,0.002,-0.002,-0.010,-222308
3.179711334,1100938866,3.266,-9.094,-0.656,-0.004,-0.002,0.006,-222475
3.183921584,1100943087,3.266,-9.098,-0.691,-0.004,-0.002,0.006,-222477
3.186254584,1100945309,3.266,-9.098,-0.691,-0.006,-0.002,-0.002,-222498
3.190432709,1100949529,3.266,-9.098,-0.691,-0.004,0.010,0.000,-221708
3.195739,1100954750,3.266,-9.098,-0.691,0.002,-0.008,0.018,-222507
3.200109084,1100958971,3.266,-9.098,-0.691,0.010,-0.002,-0.008,-222878
3.20426475,1100963192,3.266,-9.098,-0.691,-0.008,-0.006,0.006,-222505
3.209276959,1100968413,3.266,-9.098,-0.691,0.000,0.004,-0.008,-221612
3.214521584,1100973634,3.305,-9.137,-0.730,0.000,0.004,-0.008,-222369
3.216700709,1100975855,3.305,-9.137,-0.730,-0.008,0.006,0.004,-222542
3.22102325,1100980076,3.305,-9.137,-0.730,-0.004,0.000,0.004,-222448
3.225171875,1100984297,3.305,-9.137,-0.730,-0.002,0.010,0.004,-222095
3.230408417,1100989519,3.305,-9.137,-0.730,0.006,0.006,0.010,-222107
3.235843125,1100994740,3.305,-9.137,-0.730,0.010,-0.004,0.000,-222790
3.240848709,1100999961,3.305,-9.137,-0.730,0.002,-0.004,0.008,-222804
3.245133209,1101004182,3.227,-9.098,-0.770,0.002,-0.004,0.008,-222039
3.247255959,1101006403,3.227,-9.098,-0.770,-0.002,-0.002,-0.002,-222773
3.252545917,1101011624,3.227,-9.098,-0.770,0.008,-0.006,-0.002,-222400
3.25771,1101016845,3.227,-9.098,-0.770,0.002,-0.002,-0.006,-222325
3.262173209,1101021066,3.227,-9.098,-0.770,0.000,0.000,0.000,-222832
3.267400459,1101026287,3.227,-9.098,-0.770,0.000,0.000,0.000,-221721
3.272381875,1101031508,3.227,-9.098,-0.770,0.000,0.000,0.000,-222412
3.277677875,1101036714,3.266,-9.094,-0.656,0.000,0.000,0.000,-222412
3.280876459,1101039934,3.266,-9.094,-0.656,0.000,0.000,0.000,-222583
3.286117375,1101045155,3.266,-9.094,-0.656,0.000,0.000,0.000,-221908
3.290253417,1101049376,3.266,-9.094,-0.656,0.000,0.000,0.000,-222210
3.295503084,1101054597,3.266,-9.094,-0.656,0.000,0.000,0.000,-221884
3.299717792,1101058818,3.266,-9.094,-0.656,0.000,0.000,0.000,-222206
3.304147584,1101063039,3.266,-9.094,-0.656,0.000,0.000,0.000,-222132
3.307102834,1101066260,3.227,-9.094,-0.691,0.000,0.000,0.000,-222818
3.309357084,1101068481,3.227,-9.094,-0.691,0.000,0.000,0.000,-222641
3.314597542,1101073702,3.227,-9.094,-0.691,0.000,0.000,0.000,-221903
3.318965292,1101077923,3.227,-9.094,-0.691,0.000,0.000,0.000,-222427
3.323159834,1101082144,3.227,-9.094,-0.691,0.000,0.000,0.000,-222645
3.32747725,1101086365,3.227,-9.094,-0.691,0.000,0.000,0.000,-221640
3.332100667,1101090586,3.305,-9.133,-0.656,0.000,0.000,0.000,-223532
3.335273875,1101093807,3.305,-9.133,-0.656,0.000,0.000,0.000,-222203
3.341084709,1101100028,3.305,-9.133,-0.656,0.000,0.000,0.000,-222768
3.345094542,1101104249,3.305,-9.133,-0.656,0.000,0.000,0.000,-221845
3.349347584,1101108470,3.305,-9.133,-0.656,0.000,0.000,0.000,-222417
3.354862834,1101113691,3.305,-9.133,-0.656,0.000,0.000,0.000,-223036
3.358838375,1101117912,3.305,-9.133,-0.656,0.000,0.000,0.000,-222213
3.363258542,1101122133,3.266,-9.137,-0.730,0.000,0.000,0.000,-222795
3.366811959,1101125354,3.266,-9.137,-0.730,0.000,0.000,0.000,-222726
3.372460167,1101131575,3.266,-9.137,-0.730,0.000,0.000,0.000,-221845
3.377719542,1101136796,3.266,-9.137,-0.730,0.000,0.000,0.000,-222341
3.382954584,1101142017,3.266,-9.137,-0.730,0.000,0.000,0.000,-223026
3.388130292,1101147238,3.266,-9.094,-0.656,0.000,0.000,0.000,-222632
3.39157775,1101150459,3.266,-9.094,-0.656,0.000,0.000,0.000,-221734
3.397804875,1101156680,3.266,-9.094,-0.656,0.000,0.000,0.000,-222436
3.4020105,1101160901,3.266,-9.094,-0.656,0.000,0.000,0.000,-222418
3.405991417,1101165122,3.266,-9.094,-0.656,0.000,0.000,0.000,-222790
3.410206709,1101169343,3.266,-9.094,-0.656,0.000,0.000,0.000,-221806
3.415494625,1101174564,3.266,-9.094,-0.656,0.000,0.000,0.000,-222431
3.419684375,1101178785,3.266,-9.133,-0.617,0.000,0.000,0.000,-222514
3.422915084,1101182006,3.266,-9.133,-0.617,0.000,0.000,0.000,-222101
3.428113584,1101187227,3.266,-9.133,-0.617,0.000,0.000,0.000,-221947
3.433380292,1101192448,3.266,-9.133,-0.617,0.000,0.000,0.000,-222532
3.437831334,1101196669,3.266,-9.133,-0.617,0.000,0.000,0.000,-222089
3.442816375,1101201890,3.266,-9.133,-0.617,0.000,0.000,0.000,-222243
3.447188709,1101206111,3.266,-9.133,-0.617,0.000,0.000,0.000,-222142
3.451269084,1101210332,3.227,-9.094,-0.730,0.000,0.000,0.000,-222810
3.454474875,1101213553,3.227,-9.094,-0.730,0.000,0.000,0.000,-222487
3.460684375,1101219774,3.227,-9.094,-0.730,0.000,0.000,0.000,-222167
3.464902042,1101223995,3.227,-9.094,-0.730,0.000,0.000,0.000,-221610
3.468126875,1101227216,3.227,-9.094,-0.730,0.000,0.000,0.000,-222929
3.472584667,1101231437,3.227,-9.094,-0.730,0.000,0.000,0.000,-222232
3.477545167,1101236658,3.227,-9.094,-0.730,0.000,0.000,0.000,-222687
3.480790084,1101239879,3.266,-9.098,-0.691,0.000,0.000,0.000,-221397
3.483009334,1101242100,3.266,-9.098,-0.691,0.000,0.000,0.000,-222928
3.492317417,1101251321,3.266,-9.098,-0.691,0.000,0.000,0.000,-222860
3.497664625,1101256542,3.266,-9.098,-0.691,0.000,0.000,0.000,-222211
3.50192075,1101260763,3.266,-9.098,-0.691,0.000,0.000,0.000,-222993
3.505927417,1101264984,3.266,-9.098,-0.691,0.000,0.000,0.000,-222547
3.510125292,1101269205,3.266,-9.098,-0.691,0.000,0.000,0.000,-222348
3.515366334,1101274426,3.227,-9.137,-0.617,0.000,0.000,0.000,-223388
3.517618959,1101276647,3.227,-9.137,-0.617,0.000,0.000,0.000,-222693
3.52286625,1101281868,3.227,-9.137,-0.617,0.000,0.000,0.000,-222361
3.526962334,1101286090,3.227,-9.137,-0.617,0.000,0.000,0.000,-222378
3.531137667,1101290311,3.227,-9.137,-0.617,0.000,0.000,0.000,-222791
3.535696667,1101294532,3.227,-9.137,-0.617,0.000,0.000,0.000,-222848
3.539626292,1101298753,3.227,-9.137,-0.617,0.000,0.000,0.000,-222685
3.543878334,1101302974,3.305,-9.137,-0.691,0.000,0.000,0.000,-222398
3.547232834,1101306195,3.305,-9.137,-0.691,0.000,0.000,0.000,-221694
3.552500834,1101311416,3.305,-9.137,-0.691,0.000,0.000,0.000,-222472
3.556649375,1101315637,3.305,-9.137,-0.691,0.000,0.000,0.000,-222840
3.560990917,1101319858,3.305,-9.137,-0.691,0.000,0.000,0.000,-222469
3.56520925,1101324079,3.305,-9.137,-0.691,0.000,0.000,0.000,-222229
3.570202,1101328300,3.305,-9.137,-0.691,0.000,0.000,0.000,-222874
3.574354834,1101333521,3.227,-9.133,-0.691,0.000,0.000,0.000,-222573
3.576610417,1101335742,3.227,-9.133,-0.691,0.000,0.000,0.000,-221417
3.581944834,1101340963,3.227,-9.133,-0.691,0.000,0.000,0.000,-222433
3.587292042,1101346184,3.227,-9.133,-0.691,0.000,0.000,0.000,-222351
3.591332792,1101350405,3.227,-9.133,-0.691,0.000,0.000,0.000,-222722
3.596564542,1101355626,3.227,-9.133,-0.691,0.000,0.000,0.000,-221846
3.600782292,1101359847,3.227,-9.133,-0.691,0.000,0.000,0.000,-222235
3.604978542,1101364068,3.227,-9.094,-0.691,0.000,0.000,0.000,-222788
3.607149459,1101366289,3.227,-9.094,-0.691,0.000,0.000,0.000,-222280
3.612408542,1101371511,3.227,-9.094,-0.691,0.000,0.000,0.000,-223282
3.616596417,1101375732,3.227,-9.094,-0.691,0.000,0.000,0.000,-222416
3.619834792,1101378953,3.227,-9.094,-0.691,0.000,0.000,0.000,-223345
3.625085459,1101384174,3.227,-9.094,-0.691,0.000,0.000,0.000,-222133
3.629263375,1101388395,3.227,-9.094,-0.691,0.000,0.000,0.000,-221998
3.635492542,1101394616,3.305,-9.137,-0.691,0.000,0.000,0.000,-222596
3.637698167,1101396837,3.305,-9.137,-0.691,0.000,0.000,0.000,-222976
3.641956125,1101401058,3.305,-9.137,-0.691,0.000,0.000,0.000,-222761
3.646170542,1101405279,3.305,-9.137,-0.691,0.000,0.000,0.000,-222323
3.650387709,1101409500,3.305,-9.137,-0.691,0.000,0.000,0.000,-222992
3.655606,1101414721,3.305,-9.137,-0.691,0.000,0.000,0.000,-222689
3.659870792,1101418942,3.305,-9.137,-0.691,0.000,0.000,0.000,-221599
3.663304709,1101422163,3.266,-9.094,-0.656,0.000,0.000,0.000,-221783
3.665270542,1101424384,3.266,-9.094,-0.656,0.000,0.000,0.000,-222635
3.67076525,1101429605,3.266,-9.094,-0.656,0.000,0.000,0.000,-222634
3.675737959,1101434826,3.266,-9.094,-0.656,0.000,0.000,0.000,-221659
3.680305292,1101439047,3.266,-9.094,-0.656,0.000,0.000,0.000,-221981
3.684171875,1101443268,3.266,-9.094,-0.656,0.000,0.000,0.000,-221997
3.68835425,1101447489,3.266,-9.094,-0.656,0.000,0.000,0.000,-223078
3.693161417,1101451710,3.266,-9.137,-0.691,0.000,0.000,0.000,-222170
3.697022125,1101454931,3.266,-9.137,-0.691,0.000,0.000,0.000,-221764
3.701162209,1101460152,3.266,-9.137,-0.691,0.000,0.000,0.000,-222442
3.705299417,1101464373,3.266,-9.137,-0.691,0.000,0.000,0.000,-222570
3.708517417,1101467594,3.266,-9.137,-0.691,0.000,0.000,0.000,-222342
3.713737084,1101472815,3.266,-9.137,-0.691,0.000,0.000,0.000,-221874
3.719062334,1101478036,3.266,-9.137,-0.691,0.000,0.000,0.000,-222232
3.722167792,1101481257,3.227,-9.133,-0.730,0.000,0.000,0.000,-223179
3.725404209,1101484478,3.227,-9.133,-0.730,0.000,0.000,0.000,-221768
3.730581792,1101489699,3.227,-9.133,-0.730,0.000,0.000,0.000,-222649
3.738177417,1101496920,3.227,-9.133,-0.730,0.000,0.000,0.000,-222279
3.742014917,1101501141,3.227,-9.133,-0.730,0.000,0.000,0.000,-222532
3.747383167,1101506362,3.227,-9.133,-0.730,0.000,0.000,0.000,-222405
3.753175167,1101511568,3.227,-9.133,-0.730,0.000,0.000,0.000,-222405
3.755662417,1101514788,3.266,-9.059,-0.656,0.000,0.000,0.000,-222446
3.757883625,1101517009,3.266,-9.059,-0.656,0.000,0.000,0.000,-222770
3.763161834,1101522230,3.266,-9.059,-0.656,0.000,0.000,0.000,-223199
3.767478625,1101526451,3.266,-9.059,-0.656,0.000,0.000,0.000,-222702
3.771600917,1101530672,3.266,-9.059,-0.656,0.000,0.000,0.000,-222526
3.77677775,1101535893,3.266,-9.059,-0.656,0.000,0.000,0.000,-221449
3.780976834,1101540114,3.266,-9.059,-0.656,0.000,0.000,0.000,-222564
3.785176584,1101544335,3.266,-9.137,-0.691,0.000,0.000,0.000,-222605
3.78841175,1101547556,3.266,-9.137,-0.691,0.000,0.000,0.000,-221850
3.794634417,1101553777,3.266,-9.137,-0.691,0.000,0.000,0.000,-221951
3.798838709,1101557998,3.266,-9.137,-0.691,0.000,0.000,0.000,-221948
3.80312875,1101562219,3.266,-9.137,-0.691,0.000,0.000,0.000,-222449
3.807262417,1101566440,3.266,-9.137,-0.691,0.000,0.000,0.000,-221448
3.810497042,1101569661,3.266,-9.137,-0.691,0.000,0.000,0.000,-222713
3.814736084,1101573882,3.227,-9.098,-0.656,0.000,0.000,0.000,-223387
3.817978292,1101577103,3.227,-9.098,-0.656,0.000,0.000,0.000,-222638
3.823176667,1101582324,3.227,-9.098,-0.656,0.000,0.000,0.000,-222087
3.828433625,1101587545,3.227,-9.098,-0.656,0.000,0.000,0.000,-222161
3.83259275,1101591766,3.227,-9.098,-0.656,0.000,0.000,0.000,-222601
3.837856792,1101596987,3.227,-9.098,-0.656,0.000,0.000,0.000,-222820
3.842074625,1101601208,3.266,-9.137,-0.730,0.000,0.000,0.000,-222459
3.845300667,1101604429,3.266,-9.137,-0.730,0.000,0.000,0.000,-222129
3.850533084,1101609650,3.266,-9.137,-0.730,0.000,0.000,0.000,-222552
3.855725875,1101614871,3.266,-9.137,-0.730,0.000,0.000,0.000,-222635
3.859955584,1101619092,3.266,-9.137,-0.730,0.000,0.000,0.000,-222483
3.86517275,1101624313,3.266,-9.137,-0.730,0.000,0.000,0.000,-222349
3.870383375,1101629534,3.266,-9.137,-0.730,0.000,0.000,0.000,-222692
3.875625125,1101634755,3.266,-9.137,-0.691,0.000,0.000,0.000,-222132
3.877867542,1101636976,3.266,-9.137,-0.691,0.000,0.000,0.000,-222506
3.883116792,1101642197,3.266,-9.137,-0.691,0.000,0.000,0.000,-222455
3.887279042,1101646418,3.266,-9.137,-0.691,0.000,0.000,0.000,-222352
3.891519084,1101650639,3.266,-9.137,-0.691,0.000,0.000,0.000,-222477
3.897812625,1101656860,3.266,-9.137,-0.691,0.000,0.000,0.000,-222240
3.90197175,1101661081,3.266,-9.137,-0.691,0.000,0.000,0.000,-222838
3.905258417,1101664303,3.266,-9.133,-0.656,0.000,0.000,0.000,-222349
3.908409292,1101667524,3.266,-9.133,-0.656,0.000,0.000,0.000,-222647
3.914664334,1101673745,3.266,-9.133,-0.656,0.000,0.000,0.000,-222828
3.918810667,1101677966,3.266,-9.133,-0.656,0.000,0.000,0.000,-222372
3.923226625,1101682187,3.266,-9.133,-0.656,0.000,0.000,0.000,-221688
3.927337667,1101686408,3.266,-9.133,-0.656,0.000,0.000,0.000,-221804
3.930517334,1101689629,3.266,-9.133,-0.656,0.000,0.000,0.000,-222886
3.935763375,1101694850,3.227,-9.094,-0.691,0.000,0.000,0.000,-222717
3.937963667,1101697071,3.227,-9.094,-0.691,0.000,0.000,0.000,-222960
3.943176,1101702292,3.227,-9.094,-0.691,0.000,0.000,0.000,-222358
3.9486205,1101707513,3.227,-9.094,-0.691,0.000,0.000,0.000,-222376
3.952785125,1101711734,3.227,-9.094,-0.691,0.000,0.000,0.000,-223106
3.958290417,1101716955,3.227,-9.094,-0.691,0.000,0.000,0.000,-222610
3.962065125,1101721176,3.305,-9.133,-0.617,0.000,0.000,0.000,-222448
3.965294584,1101724397,3.305,-9.133,-0.617,0.000,0.000,0.000,-221552
3.970812375,1101729618,3.305,-9.133,-0.617,0.000,0.000,0.000,-222666
3.975740875,1101734839,3.305,-9.133,-0.617,0.000,0.000,0.000,-222974
3.980062292,1101739060,3.305,-9.133,-0.617,0.000,0.000,0.000,-222297
3.986315209,1101745281,3.305,-9.133,-0.617,0.000,0.000,0.000,-221684
3.990446542,1101749503,3.305,-9.133,-0.617,0.000,0.000,0.000,-221626
3.995644,1101754724,3.266,-9.137,-0.691,0.000,0.000,0.000,-222228
3.998952334,1101757945,3.266,-9.137,-0.691,0.000,0.000,0.000,-223293
4.004169417,1101763166,3.266,-9.137,-0.691,0.000,0.000,0.000,-222412
4.009263167,1101768387,3.266,-9.137,-0.691,0.000,0.000,0.000,-222799
4.013499625,1101772608,3.266,-9.137,-0.691,0.000,0.000,0.000,-222676
4.01880975,1101777829,3.266,-9.137,-0.691,0.000,0.000,0.000,-222471
4.023928542,1101783050,3.266,-9.137,-0.691,0.000,0.000,0.000,-221607
4.028475334,1101787271,3.266,-9.137,-0.691,0.000,0.000,0.000,-221998
4.030456959,1101789492,3.266,-9.137,-0.691,0.000,0.000,0.000,-222381
4.038183459,1101795713,3.266,-9.137,-0.691,0.000,0.000,0.000,-222399
4.040883042,1101799934,3.266,-9.137,-0.691,0.000,0.000,0.000,-222819
4.045113709,1101804155,3.266,-9.137,-0.691,0.000,0.000,0.000,-222598
4.049224167,1101808376,3.266,-9.137,-0.691,0.000,0.000,0.000,-222482
4.053573125,1101812597,3.266,-9.137,-0.691,0.000,0.000,0.000,-223105
4.058747959,1101817818,3.266,-9.137,-0.691,0.000,0.000,0.000,-221722
4.061879,1101821024,3.266,-9.137,-0.691,0.000,0.000,0.000,-221722
4.067114084,1101826244,3.266,-9.137,-0.691,0.000,0.000,0.000,-222672
4.071341167,1101830465,3.266,-9.137,-0.691,0.000,0.000,0.000,-222498
4.076638709,1101835686,3.266,-9.137,-0.691,0.000,0.000,0.000,-221793
4.080822042,1101839907,3.266,-9.137,-0.691,0.000,0.000,0.000,-221902
4.086356375,1101845128,3.266,-9.137,-0.691,0.000,0.000,0.000,-222649
4.090244709,1101849349,3.266,-9.137,-0.730,0.000,0.000,0.000,-222142
4.09344475,1101852570,3.266,-9.137,-0.730,0.000,0.000,0.000,-222209
4.09867325,1101857791,3.266,-9.137,-0.730,0.000,0.000,0.000,-222428
4.103907,1101863012,3.266,-9.137,-0.730,0.000,0.000,0.000,-222938
4.108109375,1101867233,3.266,-9.137,-0.730,0.000,0.000,0.000,-222327
4.11338225,1101872454,3.266,-9.137,-0.730,0.000,0.000,0.000,-223118
4.11766025,1101876675,3.266,-9.137,-0.730,0.000,0.000,0.000,-222352
4.121819209,1101880896,3.266,-9.098,-0.730,0.000,0.000,0.000,-221663
4.125003417,1101884117,3.266,-9.098,-0.730,0.000,0.000,0.000,-222120
4.130304542,1101889338,3.266,-9.098,-0.730,0.000,0.000,0.000,-221373
4.134516375,1101893559,3.266,-9.098,-0.730,0.000,0.000,0.000,-222603
4.13909375,1101897780,3.266,-9.098,-0.730,0.000,0.000,0.000,-222883
4.1429035,1101902001,3.266,-9.098,-0.730,0.000,0.000,0.000,-222494
4.147132292,1101906222,3.266,-9.098,-0.730,0.000,0.000,0.000,-222668
4.151383459,1101910445,3.227,-9.137,-0.617,0.000,0.000,0.000,-222851
4.154612917,1101913666,3.227,-9.137,-0.617,0.000,0.000,0.000,-221875
4.160944542,1101919887,3.227,-9.137,-0.617,0.000,0.000,0.000,-222932
4.1655955,1101924108,3.227,-9.137,-0.617,0.000,0.000,0.000,-222775
4.16826075,1101927329,3.227,-9.137,-0.617,0.000,0.000,0.000,-222497
4.173462042,1101932550,3.227,-9.137,-0.617,0.000,0.000,0.000,-223256
4.179392042,1101937771,3.266,-9.137,-0.691,0.000,0.000,0.000,-222253
4.181849,1101940992,3.266,-9.137,-0.691,0.000,0.000,0.000,-222644
4.188189875,1101947213,3.266,-9.137,-0.691,0.000,0.000,0.000,-222719
4.192459292,1101951434,3.266,-9.137,-0.691,0.000,0.000,0.000,-222560
4.196772042,1101955655,3.266,-9.137,-0.691,0.000,0.000,0.000,-222995
4.200909459,1101959876,3.266,-9.137,-0.691,0.000,0.000,0.000,-221966
4.206141,1101965097,3.266,-9.137,-0.691,0.000,0.000,0.000,-222196
4.210223167,1101969318,3.266,-9.098,-0.691,0.000,0.000,0.000,-221701
4.213448334,1101972539,3.266,-9.098,-0.691,0.000,0.000,0.000,-222148
4.218724042,1101977760,3.266,-9.098,-0.691,0.000,0.000,0.000,-222693
4.223896042,1101982981,3.266,-9.098,-0.691,0.000,0.000,0.000,-222537
4.22809825,1101987202,3.266,-9.098,-0.691,0.000,0.000,0.000,-222749
4.233398542,1101992423,3.266,-9.098,-0.691,0.000,0.000,0.000,-222191
4.238498417,1101996644,3.266,-9.098,-0.691,0.000,0.000,0.000,-222214
4.241805042,1102000865,3.191,-9.094,-0.656,0.000,0.000,0.000,-221793
4.245018,1102004086,3.191,-9.094,-0.656,0.000,0.000,0.000,-222069
4.251408584,1102010307,3.191,-9.094,-0.656,0.000,0.000,0.000,-222480
4.255466792,1102014528,3.191,-9.094,-0.656,0.000,0.000,0.000,-222290
4.258639875,1102017749,3.191,-9.094,-0.656,0.000,0.000,0.000,-222859
4.262875542,1102021970,3.191,-9.094,-0.656,0.000,0.000,0.000,-222551
4.267181,1102026191,3.191,-9.094,-0.656,0.000,0.000,0.000,-222688
4.271371625,1102030412,3.266,-9.098,-0.691,0.000,0.000,0.000,-223370
4.274544792,1102033633,3.266,-9.098,-0.691,0.000,0.000,0.000,-222271
4.280786167,1102039854,3.266,-9.098,-0.691,0.000,0.000,0.000,-222842
4.284944959,1102044075,3.266,-9.098,-0.691,0.000,0.000,0.000,-222011
4.288219917,1102047296,3.266,-9.098,-0.691,0.000,0.000,0.000,-222414
4.293525292,1102052517,3.266,-9.098,-0.691,0.000,0.000,0.000,-222433
4.297609,1102056738,3.266,-9.137,-0.691,0.000,0.000,0.000,-221481
4.299808417,1102058959,3.266,-9.137,-0.691,0.000,0.000,0.000,-222306
4.30414025,1102063180,3.266,-9.137,-0.691,0.000,0.000,0.000,-222013
4.308304584,1102067401,3.266,-9.137,-0.691,0.000,0.000,0.000,-221946
4.312527667,1102071622,3.266,-9.137,-0.691,0.000,0.000,0.000,-222580
4.316848792,1102075843,3.266,-9.137,-0.691,0.000,0.000,0.000,-221925
4.319991209,1102079064,3.266,-9.098,-0.730,0.000,0.000,0.000,-223049
4.323177667,1102082285,3.266,-9.098,-0.730,0.000,0.000,0.000,-222486
4.32843175,1102087506,3.266,-9.098,-0.730,0.000,0.000,0.000,-222454
4.333655834,1102092727,3.266,-9.098,-0.730,0.000,0.000,0.000,-222024
4.337995292,1102096948,3.266,-9.098,-0.730,0.000,0.000,0.000,-222393
4.342011959,1102101169,3.266,-9.098,-0.730,0.000,0.000,0.000,-222350
4.346255417,1102105390,3.266,-9.098,-0.730,0.000,0.000,0.000,-222437
4.350531042,1102109611,3.266,-9.098,-0.691,0.000,0.000,0.000,-222658
4.353747417,1102112832,3.266,-9.098,-0.691,0.000,0.000,0.000,-222067
4.360071792,1102119053,3.266,-9.098,-0.691,0.000,0.000,0.000,-223087
4.364397959,1102123274,3.266,-9.098,-0.691,0.000,0.000,0.000,-222633
4.369379084,1102127496,3.266,-9.098,-0.691,0.000,0.000,0.000,-222938
4.373548417,1102132717,3.227,-9.094,-0.691,0.000,0.000,0.000,-222242
4.376852459,1102135938,3.227,-9.094,-0.691,0.000,0.000,0.000,-222883
4.383071084,1102142159,3.227,-9.094,-0.691,0.000,0.000,0.000,-222023
4.388335417,1102147380,3.227,-9.094,-0.691,0.000,0.000,0.000,-222622
4.392551209,1102151601,3.227,-9.094,-0.691,0.000,0.000,0.000,-223152
4.397977375,1102156822,3.227,-9.094,-0.691,0.000,0.000,0.000,-222510
4.403343584,1102161043,3.227,-9.094,-0.691,0.000,0.000,0.000,-222917
4.406210542,1102165264,3.266,-9.098,-0.691,0.000,0.000,0.000,-222302
4.408326375,1102167485,3.266,-9.098,-0.691,0.000,0.000,0.000,-222598
4.41254875,1102171706,3.266,-9.098,-0.691,0.000,0.000,0.000,-222699
4.416845667,1102175927,3.266,-9.098,-0.691,0.000,0.000,0.000,-222477
4.420032417,1102179148,3.266,-9.098,-0.691,0.000,0.000,0.000,-223292
4.42423675,1102183369,3.266,-9.098,-0.691,0.000,0.000,0.000,-222178
4.428712334,1102187590,3.266,-9.098,-0.691,0.000,0.000,0.000,-222291
4.432691042,1102191811,3.266,-9.137,-0.691,0.000,0.000,0.000,-222061
4.434924875,1102194032,3.266,-9.137,-0.691,0.000,0.000,0.000,-222667
4.440141875,1102199253,3.266,-9.137,-0.691,0.000,0.000,0.000,-222367
4.444376042,1102203474,3.266,-9.137,-0.691,0.000,0.000,0.000,-222237
4.447612625,1102206695,3.266,-9.137,-0.691,0.000,0.000,0.000,-222123
4.451809875,1102210916,3.266,-9.137,-0.691,0.000,0.000,0.000,-222230
4.4561225,1102215137,3.266,-9.137,-0.691,0.000,0.000,0.000,-223310
4.460302125,1102219358,3.266,-9.133,-0.656,0.000,0.000,0.000,-222424
4.463491292,1102222579,3.266,-9.133,-0.656,0.000,0.000,0.000,-222292
4.468766459,1102227800,3.266,-9.133,-0.656,0.000,0.000,0.000,-223021
4.472903667,1102232021,3.266,-9.133,-0.656,0.000,0.000,0.000,-222315
4.478113709,1102237242,3.266,-9.133,-0.656,0.000,0.000,0.000,-222382
4.48236,1102241463,3.266,-9.133,-0.656,0.000,0.000,0.000,-222851
4.486625417,1102245684,3.266,-9.133,-0.656,0.000,0.000,0.000,-222682
4.490821167,1102249905,3.227,-9.094,-0.691,0.000,0.000,0.000,-222195
4.494156125,1102253126,3.227,-9.094,-0.691,0.000,0.000,0.000,-222288
4.50149925,1102260347,3.227,-9.094,-0.691,0.000,0.000,0.000,-222634
4.505499167,1102264568,3.227,-9.094,-0.691,0.000,0.000,0.000,-222184
4.5086575,1102267789,3.227,-9.094,-0.691,0.000,0.000,0.000,-221887
4.512887125,1102272010,3.227,-9.094,-0.691,0.000,0.000,0.000,-222493
4.518102584,1102277231,3.227,-9.094,-0.691,0.000,0.000,0.000,-222784
4.52127675,1102280452,3.266,-9.098,-0.691,0.000,0.000,0.000,-222267
4.526856542,1102285673,3.266,-9.098,-0.691,0.000,0.000,0.000,-222005
4.531047625,1102289894,3.266,-9.098,-0.691,0.000,0.000,0.000,-222126
4.536047667,1102295115,3.266,-9.098,-0.691,0.000,0.000,0.000,-223349
4.540256,1102299336,3.266,-9.098,-0.691,0.000,0.000,0.000,-222626
4.544438584,1102303557,3.266,-9.098,-0.691,0.000,0.000,0.000,-222893
4.548775125,1102307778,3.266,-9.133,-0.656,0.000,0.000,0.000,-222028
4.551823709,1102310999,3.266,-9.133,-0.656,0.000,0.000,0.000,-222795
4.558050834,1102317220,3.266,-9.133,-0.656,0.000,0.000,0.000,-222237
4.562561917,1102321441,3.266,-9.133,-0.656,0.000,0.000,0.000,-222404
4.566891542,1102325662,3.266,-9.133,-0.656,0.000,0.000,0.000,-222603
4.570969,1102329883,3.266,-9.133,-0.656,0.000,0.000,0.000,-223395
4.575998,1102335104,3.266,-9.133,-0.656,0.000,0.000,0.000,-222689
4.580261292,1102339325,3.266,-9.133,-0.617,0.000,0.000,0.000,-223516
4.583564834,1102342546,3.266,-9.133,-0.617,0.000,0.000,0.000,-222963
4.588981542,1102347767,3.266,-9.133,-0.617,0.000,0.000,0.000,-222596
4.593121167,1102351988,3.266,-9.133,-0.617,0.000,0.000,0.000,-222344
4.598328209,1102357209,3.266,-9.133,-0.617,0.000,0.000,0.000,-222605
4.602953917,1102361430,3.266,-9.133,-0.617,0.000,0.000,0.000,-222991
4.606555542,1102365651,3.266,-9.133,-0.617,0.000,0.000,0.000,-222378
4.610845667,1102369872,3.305,-9.133,-0.656,0.000,0.000,0.000,-221915
4.614002834,1102373093,3.305,-9.133,-0.656,0.000,0.000,0.000,-222267
4.619244167,1102378314,3.305,-9.133,-0.656,0.000,0.000,0.000,-222502
4.623452,1102382535,3.305,-9.133,-0.656,0.000,0.000,0.000,-222503
4.628653584,1102387756,3.305,-9.133,-0.656,0.000,0.000,0.000,-222501
4.632898084,1102391977,3.305,-9.133,-0.656,0.000,0.000,0.000,-221889
4.638433084,1102397198,3.305,-9.133,-0.656,0.000,0.000,0.000,-222599
4.6423495,1102401419,3.266,-9.137,-0.691,0.000,0.000,0.000,-222080
4.645594042,1102404640,3.266,-9.137,-0.691,0.000,0.000,0.000,-222287
4.650829875,1102409861,3.266,-9.137,-0.691,0.000,0.000,0.000,-221968
4.656019792,1102415082,3.266,-9.137,-0.691,0.000,0.000,0.000,-222688
4.661228042,1102420303,3.266,-9.137,-0.691,0.000,0.000,0.000,-221633
4.666590542,1102425524,3.266,-9.137,-0.691,0.000,0.000,0.000,-222369
4.669690125,1102428745,3.266,-9.137,-0.691,0.000,0.000,0.000,-222323
4.675894875,1102434966,3.266,-9.137,-0.691,0.000,0.000,0.000,-222858
4.680037292,1102439187,3.266,-9.137,-0.691,0.000,0.000,0.000,-222565
4.684319417,1102443408,3.266,-9.137,-0.691,0.000,0.000,0.000,-222511
4.688602584,1102447629,3.266,-9.137,-0.691,0.000,0.000,0.000,-222712
4.693872875,1102452850,3.266,-9.137,-0.691,0.000,0.000,0.000,-222187
4.698188334,1102457071,3.266,-9.176,-0.656,0.000,0.000,0.000,-222379
4.703071042,1102460294,3.266,-9.176,-0.656,0.000,0.000,0.000,-222373
4.706368667,1102465514,3.266,-9.176,-0.656,0.000,0.000,0.000,-222393
4.711667042,1102470735,3.266,-9.176,-0.656,0.000,0.000,0.000,-222138
4.715868917,1102474956,3.266,-9.176,-0.656,0.000,0.000,0.000,-222364
4.720114792,1102479177,3.266,-9.176,-0.656,0.000,0.000,0.000,-223126
4.72329725,1102482398,3.266,-9.176,-0.656,0.000,0.000,0.000,-221851
4.727697167,1102486619,3.266,-9.094,-0.617,0.000,0.000,0.000,-222355
4.730890292,1102489840,3.266,-9.094,-0.617,0.000,0.000,0.000,-222256
4.737216584,1102496061,3.266,-9.094,-0.617,0.000,0.000,0.000,-222334
4.741394167,1102500283,3.266,-9.094,-0.617,0.000,0.000,0.000,-222556
4.745428042,1102504504,3.266,-9.094,-0.617,0.000,0.000,0.000,-220966
4.749671667,1102508725,3.266,-9.094,-0.617,0.000,0.000,0.000,-222210
4.753834209,1102512946,3.266,-9.094,-0.617,0.000,0.000,0.000,-222339
4.760248834,1102519167,3.266,-9.098,-0.730,0.000,0.000,0.000,-221490
4.762207084,1102521388,3.266,-9.098,-0.730,0.000,0.000,0.000,-222660
4.766577167,1102525611,3.266,-9.098,-0.730,0.000,0.000,0.000,-222847
4.770928667,1102529832,3.266,-9.098,-0.730,0.000,0.000,0.000,-222007
4.77598475,1102535053,3.266,-9.098,-0.730,0.000,0.000,0.000,-222717
4.781305875,1102540274,3.266,-9.098,-0.730,0.000,0.000,0.000,-223125
4.786564875,1102545496,3.227,-9.137,-0.656,0.000,0.000,0.000,-223479
4.789639042,1102548717,3.227,-9.137,-0.656,0.000,0.000,0.000,-222284
4.795874417,1102554938,3.227,-9.137,-0.656,0.000,0.000,0.000,-222217
4.800105209,1102559159,3.227,-9.137,-0.656,0.000,0.000,0.000,-222214
4.804342209,1102563380,3.227,-9.137,-0.656,0.000,0.000,0.000,-222639
4.808537,1102567601,3.227,-9.137,-0.656,0.000,0.000,0.000,-222531
4.813717459,1102572822,3.227,-9.137,-0.656,0.000,0.000,0.000,-221852
4.818156375,1102577043,3.266,-9.094,-0.656,0.000,0.000,0.000,-223044
4.821168709,1102580264,3.266,-9.094,-0.656,0.000,0.000,0.000,-222171
4.826377625,1102585485,3.266,-9.094,-0.656,0.000,0.000,0.000,-221276
4.83160475,1102590706,3.266,-9.094,-0.656,0.000,0.000,0.000,-222487
4.835874584,1102594927,3.266,-9.094,-0.656,0.000,0.000,0.000,-223007
4.840075917,1102599148,3.266,-9.094,-0.656,0.000,0.000,0.000,-222458
4.843276209,1102602369,3.266,-9.094,-0.656,0.000,0.000,0.000,-222276
4.847483125,1102606591,3.266,-9.094,-0.617,0.000,0.000,0.000,-222332
4.850700375,1102609812,3.266,-9.094,-0.617,0.000,0.000,0.000,-221806
4.856999459,1102616033,3.266,-9.094,-0.617,0.000,0.000,0.000,-222341
4.8611855,1102620254,3.266,-9.094,-0.617,0.000,0.000,0.000,-222745
4.865337042,1102624475,3.266,-9.094,-0.617,0.000,0.000,0.000,-222747
4.869613417,1102628696,3.266,-9.094,-0.617,0.000,0.000,0.000,-222364
4.873817625,1102632917,3.266,-9.094,-0.617,0.000,0.000,0.000,-222204
4.879005834,1102638138,3.266,-9.133,-0.617,0.000,0.000,0.000,-222075
4.882261834,1102641359,3.266,-9.133,-0.617,0.000,0.000,0.000,-222617
4.888568792,1102647580,3.266,-9.133,-0.617,0.000,0.000,0.000,-221897
4.892833667,1102651801,3.266,-9.133,-0.617,0.000,0.000,0.000,-221756
4.897188542,1102656022,3.266,-9.133,-0.617,0.000,0.000,0.000,-223026
4.90139775,1102660243,3.266,-9.133,-0.617,0.000,0.000,0.000,-222379
4.905429,1102664464,3.266,-9.133,-0.617,0.000,0.000,0.000,-222521
4.910804125,1102669685,3.266,-9.137,-0.730,0.000,0.000,0.000,-221941
4.913804209,1102672906,3.266,-9.137,-0.730,0.000,0.000,0.000,-222534
4.920204792,1102679127,3.266,-9.137,-0.730,0.000,0.000,0.000,-222781
4.924332542,1102683348,3.266,-9.137,-0.730,0.000,0.000,0.000,-221702
4.928882834,1102687569,3.266,-9.137,-0.730,0.000,0.000,0.000,-221815
4.932921584,1102691790,3.266,-9.137,-0.730,0.000,0.000,0.000,-222203
4.937983375,1102697011,3.266,-9.137,-0.730,0.000,0.000,0.000,-222424
4.942076292,1102701232,3.266,-9.133,-0.656,0.000,0.000,0.000,-222634
4.945635875,1102704453,3.266,-9.133,-0.656,0.000,0.000,0.000,-222221
4.951605334,1102710674,3.266,-9.133,-0.656,0.000,0.000,0.000,-222330
4.957246792,1102715895,3.266,-9.133,-0.656,0.000,0.000,0.000,-223169
4.961117,1102720116,3.266,-9.133,-0.656,0.000,0.000,0.000,-222026
4.965330667,1102724337,3.266,-9.133,-0.656,0.000,0.000,0.000,-222571
4.970411,1102728558,3.266,-9.133,-0.656,0.000,0.000,0.000,-222588
4.9736355,1102732779,3.227,-9.094,-0.691,0.000,0.000,0.000,-222702
4.9758495,1102735000,3.227,-9.094,-0.691,0.000,0.000,0.000,-222364
4.981190292,1102740221,3.227,-9.094,-0.691,0.000,0.000,0.000,-222576
4.98650925,1102745442,3.227,-9.094,-0.691,0.000,0.000,0.000,-221980
4.990793375,1102749663,3.227,-9.094,-0.691,0.000,0.000,0.000,-222623
4.996740959,1102755884,3.227,-9.094,-0.691,0.000,0.000,0.000,-221840
5.001247334,1102760105,3.227,-9.094,-0.691,0.000,0.000,0.000,-221637
5.007219084,1102766326,3.266,-9.094,-0.770,0.000,0.000,0.000,-223202
5.010440167,1102769547,3.266,-9.094,-0.770,0.000,0.000,0.000,-222098
5.016698667,1102775768,3.266,-9.094,-0.770,0.000,0.000,0.000,-221653
5.020874417,1102779989,3.266,-9.094,-0.770,0.000,0.000,0.000,-222262
5.02414475,1102783210,3.266,-9.094,-0.770,0.000,0.000,0.000,-222938
5.028376417,1102787431,3.266,-9.094,-0.770,0.000,0.000,0.000,-222050
5.032513,1102791652,3.266,-9.094,-0.770,0.000,0.000,0.000,-222321
5.036829042,1102795873,3.266,-9.055,-0.691,0.000,0.000,0.000,-223267
5.039004584,1102798094,3.266,-9.055,-0.691,0.000,0.000,0.000,-222165
5.044280792,1102803315,3.266,-9.055,-0.691,0.000,0.000,0.000,-222270
5.048514625,1102807536,3.266,-9.055,-0.691,0.000,0.000,0.000,-222749
5.051688917,1102810757,3.266,-9.055,-0.691,0.000,0.000,0.000,-223020
5.056904959,1102815978,3.266,-9.055,-0.691,0.000,0.000,0.000,-222970
5.061504667,1102820199,3.266,-9.055,-0.691,0.000,0.000,0.000,-222354
5.06434375,1102823420,3.305,-9.133,-0.770,0.000,0.000,0.000,-222365
5.068931334,1102827641,3.305,-9.133,-0.770,0.000,0.000,0.000,-222297
5.07190375,1102830862,3.266,-9.094,-0.578,0.000,0.000,0.000,-222937
5.076946292,1102836083,3.266,-9.094,-0.578,0.000,0.000,0.000,-223068
5.081195209,1102840304,3.266,-9.094,-0.578,0.000,0.000,0.000,-222601
5.085393834,1102844525,3.266,-9.094,-0.578,0.000,0.000,0.000,-222174
5.089658875,1102848746,3.266,-9.094,-0.578,0.000,0.000,0.000,-222425
5.093860959,1102852967,3.266,-9.094,-0.578,0.000,0.000,0.000,-222360
5.09804275,1102857188,3.227,-9.133,-0.730,0.000,0.000,0.000,-222293
5.100274667,1102859409,3.227,-9.133,-0.730,0.000,0.000,0.000,-222097
5.104555084,1102863630,3.227,-9.133,-0.730,0.000,0.000,0.000,-221829
5.108751584,1102867851,3.227,-9.133,-0.730,0.000,0.000,0.000,-222173
5.112964667,1102872072,3.227,-9.133,-0.730,0.000,0.000,0.000,-222218
5.117143,1102876293,3.227,-9.133,-0.730,0.000,0.000,0.000,-222478
5.12036625,1102879514,3.266,-9.133,-0.617,0.000,0.000,0.000,-222496
5.123600084,1102882735,3.266,-9.133,-0.617,0.000,0.000,0.000,-222115
5.128835917,1102887956,3.266,-9.133,-0.617,0.000,0.000,0.000,-222207
5.134098917,1102893177,3.266,-9.133,-0.617,0.000,0.000,0.000,-222025
5.138310084,1102897398,3.266,-9.133,-0.617,0.000,0.000,0.000,-222576
5.143527584,1102902619,3.266,-9.133,-0.617,0.000,0.000,0.000,-221793
5.148820167,1102907840,3.266,-9.133,-0.617,0.000,0.000,0.000,-221865
5.153992584,1102913061,3.266,-9.137,-0.730,0.000,0.000,0.000,-223009
5.156201292,1102915282,3.266,-9.137,-0.730,0.000,0.000,0.000,-222569
5.161417625,1102920503,3.266,-9.137,-0.730,0.000,0.000,0.000,-222101
5.165961584,1102924724,3.266,-9.137,-0.730,0.000,0.000,0.000,-222808
5.169908042,1102928945,3.266,-9.137,-0.730,0.000,0.000,0.000,-221790
5.174053917,1102933166,3.266,-9.137,-0.730,0.000,0.000,0.000,-222708
5.178270709,1102937387,3.266,-9.137,-0.691,0.000,0.000,0.000,-222231
5.180508042,1102939608,3.266,-9.137,-0.691,0.000,0.000,0.000,-221052
5.18571925,1102944829,3.266,-9.137,-0.691,0.000,0.000,0.000,-222314
5.189982834,1102949050,3.266,-9.137,-0.691,0.000,0.000,0.000,-222234
5.19419625,1102953272,3.266,-9.137,-0.691,0.000,0.000,0.000,-222053
5.19999875,1102958493,3.266,-9.137,-0.691,0.000,0.000,0.000,-222285
5.203739625,1102962714,3.266,-9.137,-0.691,0.000,0.000,0.000,-222330
5.207817709,1102966935,3.266,-9.137,-0.691,0.000,0.000,0.000,-222211
5.21103275,1102970156,3.266,-9.137,-0.691,0.000,0.000,0.000,-223180
5.217291459,1102976377,3.266,-9.137,-0.691,0.000,0.000,0.000,-222652
5.221441417,1102980598,3.266,-9.137,-0.691,0.000,0.000,0.000,-222486
5.225662209,1102984804,3.266,-9.137,-0.691,0.000,0.000,0.000,-222486
5.228912584,1102988024,3.266,-9.137,-0.691,0.000,0.000,0.000,-222175
5.233128709,1102992245,3.266,-9.137,-0.691,0.000,0.000,0.000,-222433
5.237341459,1102996466,3.266,-9.137,-0.691,0.000,0.000,0.000,-222609
5.241602459,1103000687,3.266,-9.137,-0.691,0.000,0.000,0.000,-222316
5.245793792,1103004908,3.266,-9.137,-0.691,0.000,0.000,0.000,-222272
5.250031959,1103009129,3.266,-9.137,-0.691,0.000,0.000,0.000,-222701
5.2542215,1103013350,3.227,-9.137,-0.656,0.000,0.000,0.000,-222176
5.256471875,1103015571,3.227,-9.137,-0.656,0.000,0.000,0.000,-222578
5.261785792,1103020792,3.227,-9.137,-0.656,0.000,0.000,0.000,-222959
5.266892667,1103026013,3.227,-9.137,-0.656,0.000,0.000,0.000,-221930
5.271075667,1103030234,3.227,-9.137,-0.656,0.000,0.000,0.000,-222260
5.276373625,1103035455,3.227,-9.137,-0.656,0.000,0.000,0.000,-222037
5.281577334,1103040676,3.227,-9.137,-0.656,0.000,0.000,0.000,-222352
5.285771167,1103044897,3.227,-9.137,-0.656,0.000,0.000,0.000,-221984
5.288999667,1103048118,3.227,-9.137,-0.656,0.000,0.000,0.000,-222334
5.295193709,1103054339,3.227,-9.137,-0.656,0.000,0.000,0.000,-222356
5.29945775,1103058560,3.227,-9.137,-0.656,0.000,0.000,0.000,-222659
5.303827209,1103062781,3.227,-9.137,-0.656,0.000,0.000,0.000,-222874
5.308917792,1103068002,3.227,-9.137,-0.656,0.000,0.000,0.000,-222393
5.313118625,1103072223,3.227,-9.137,-0.656,0.000,0.000,0.000,-221493
5.317406292,1103076444,3.266,-9.094,-0.656,0.000,0.000,0.000,-222403
5.320571084,1103079665,3.266,-9.094,-0.656,0.000,0.000,0.000,-222574
5.325787167,1103084886,3.266,-9.094,-0.656,0.000,0.000,0.000,-222146
5.330007417,1103089107,3.266,-9.094,-0.656,0.000,0.000,0.000,-222262
5.335300459,1103094328,3.266,-9.094,-0.656,0.000,0.000,0.000,-222754
5.340529542,1103099549,3.266,-9.094,-0.656,0.000,0.000,0.000,-222235
5.344672459,1103103770,3.266,-9.094,-0.656,0.000,0.000,0.000,-221644
5.347978667,1103106991,3.266,-9.098,-0.691,0.000,0.000,0.000,-222428
5.350098917,1103109212,3.266,-9.098,-0.691,0.000,0.000,0.000,-221408
5.35638975,1103115433,3.266,-9.098,-0.691,0.000,0.000,0.000,-222472
5.361229959,1103119654,3.266,-9.098,-0.691,0.000,0.000,0.000,-222404
5.364840834,1103123875,3.266,-9.098,-0.691,0.000,0.000,0.000,-222410
5.369558459,1103128096,3.266,-9.098,-0.691,0.000,0.000,0.000,-221991
5.374162875,1103133317,3.266,-9.098,-0.691,0.000,0.000,0.000,-221989
5.378452542,1103137538,3.266,-9.133,-0.656,0.000,0.000,0.000,-222111
5.381630917,1103140759,3.266,-9.133,-0.656,0.000,0.000,0.000,-222409
5.386935459,1103145980,3.266,-9.133,-0.656,0.000,0.000,0.000,-222310
5.392077334,1103151201,3.266,-9.133,-0.656,0.000,0.000,0.000,-222292
5.39636175,1103155422,3.266,-9.133,-0.656,0.000,0.000,0.000,-222400
5.401189459,1103159643,3.266,-9.133,-0.656,0.000,0.000,0.000,-223002
5.404835084,1103163864,3.266,-9.133,-0.656,0.000,0.000,0.000,-222590
5.408976,1103168085,3.266,-9.137,-0.691,0.000,0.000,0.000,-222308
5.411263125,1103170306,3.266,-9.137,-0.691,0.000,0.000,0.000,-222280
5.417408584,1103176527,3.266,-9.137,-0.691,0.000,0.000,0.000,-223116
5.42178875,1103180748,3.266,-9.137,-0.691,0.000,0.000,0.000,-221899
5.425871667,1103184969,3.266,-9.137,-0.691,0.000,0.000,0.000,-222343
5.43011725,1103189190,3.266,-9.137,-0.691,0.000,0.000,0.000,-221722
5.434381084,1103193411,3.266,-9.137,-0.691,0.000,0.000,0.000,-222455
5.439581,1103198632,3.305,-9.098,-0.730,0.000,0.000,0.000,-222522
5.442800292,1103201853,3.305,-9.098,-0.730,0.000,0.000,0.000,-222578
5.448991667,1103208074,3.305,-9.098,-0.730,0.000,0.000,0.000,-222653
5.45322875,1103212295,3.305,-9.098,-0.730,0.000,0.000,0.000,-222668
5.457407,1103216516,3.305,-9.098,-0.730,0.000,0.000,0.000,-222707
5.4616405,1103220737,3.305,-9.098,-0.730,0.000,0.000,0.000,-222019
5.466923084,1103225959,3.305,-9.098,-0.730,0.000,0.000,0.000,-222013
5.47105525,1103230180,3.227,-9.098,-0.617,0.000,0.000,0.000,-223085
5.474283459,1103233386,3.227,-9.098,-0.617,0.000,0.000,0.000,-223085
5.478535167,1103237606,3.227,-9.098,-0.617,0.000,0.000,0.000,-222739
5.48276925,1103241827,3.227,-9.098,-0.617,0.000,0.000,0.000,-222200
5.486967,1103246048,3.227,-9.098,-0.617,0.000,0.000,0.000,-222173
5.491615875,1103250269,3.227,-9.098,-0.617,0.000,0.000,0.000,-222000
5.49683025,1103255490,3.227,-9.098,-0.617,0.000,0.000,0.000,-222160
5.501018584,1103259711,3.266,-9.137,-0.691,0.000,0.000,0.000,-222098
5.503494042,1103261932,3.266,-9.137,-0.691,0.000,0.000,0.000,-223388
5.50714475,1103266153,3.266,-9.137,-0.691,0.000,0.000,0.000,-222529
5.511251334,1103270374,3.266,-9.137,-0.691,0.000,0.000,0.000,-222011
5.51852275,1103277595,3.266,-9.137,-0.691,0.000,0.000,0.000,-222910
5.522736459,1103281816,3.266,-9.137,-0.691,0.000,0.000,0.000,-222100
5.5269655,1103286037,3.266,-9.137,-0.691,0.000,0.000,0.000,-222003
5.531153,1103290258,3.266,-9.094,-0.656,0.000,0.000,0.000,-222202
5.533377292,1103292480,3.266,-9.094,-0.656,0.000,0.000,0.000,-223136
5.538606334,1103297701,3.266,-9.094,-0.656,0.000,0.000,0.000,-222349
5.543866709,1103302922,3.266,-9.094,-0.656,0.000,0.000,0.000,-222032
5.548053042,1103307143,3.227,-9.133,-0.730,0.000,0.000,0.000,-222131
5.551250417,1103310364,3.227,-9.133,-0.730,0.000,0.000,0.000,-222888
5.557467834,1103316585,3.227,-9.133,-0.730,0.000,0.000,0.000,-222580
5.56215275,1103320806,3.227,-9.133,-0.730,0.000,0.000,0.000,-222476
5.5669965,1103326027,3.227,-9.133,-0.730,0.000,0.000,0.000,-222100
5.571331417,1103330248,3.227,-9.133,-0.730,0.000,0.000,0.000,-222324
5.57644325,1103335469,3.227,-9.133,-0.730,0.000,0.000,0.000,-222198
5.579611709,1103338690,3.266,-9.137,-0.691,0.000,0.000,0.000,-222365
5.58402625,1103342911,3.266,-9.137,-0.691,0.000,0.000,0.000,-222286
5.588049625,1103347132,3.227,-9.094,-0.691,0.000,0.000,0.000,-222537
5.592307584,1103351354,3.227,-9.094,-0.691,0.000,0.000,0.000,-222475
5.597432292,1103356574,3.227,-9.094,-0.691,0.000,0.000,0.000,-222485
5.602925125,1103360795,3.227,-9.094,-0.691,0.000,0.000,0.000,-222583
5.607663167,1103366016,3.227,-9.094,-0.691,0.000,0.000,0.000,-222065
5.612212292,1103371237,3.266,-9.094,-0.656,0.000,0.000,0.000,-222108
5.615373375,1103374458,3.266,-9.094,-0.656,0.000,0.000,0.000,-222787
5.620577542,1103379679,3.266,-9.094,-0.656,0.000,0.000,0.000,-222438
5.624830292,1103383900,3.266,-9.094,-0.656,0.000,0.000,0.000,-222119
5.629084667,1103388121,3.266,-9.094,-0.656,0.000,0.000,0.000,-221867
5.633272042,1103392342,3.227,-9.094,-0.691,0.000,0.000,0.000,-223316
5.638795042,1103397563,3.227,-9.094,-0.691,0.000,0.000,0.000,-222711
5.642776084,1103401784,3.227,-9.094,-0.691,0.000,0.000,0.000,-222719
5.646920875,1103406005,3.227,-9.094,-0.691,0.000,0.000,0.000,-222075
5.651190042,1103410226,3.227,-9.094,-0.691,0.000,0.000,0.000,-221783
5.656417167,1103415447,3.227,-9.094,-0.691,0.000,0.000,0.000,-222777
5.659637167,1103418668,3.227,-9.133,-0.691,0.000,0.000,0.000,-222969
5.662848209,1103421889,3.227,-9.133,-0.691,0.000,0.000,0.000,-222665
5.669243459,1103428110,3.227,-9.133,-0.691,0.000,0.000,0.000,-223137
5.673252334,1103432331,3.227,-9.133,-0.691,0.000,0.000,0.000,-222474
5.677452125,1103436552,3.227,-9.133,-0.691,0.000,0.000,0.000,-222264
5.681664875,1103440773,3.227,-9.133,-0.691,0.000,0.000,0.000,-221578
5.686895,1103445996,3.227,-9.133,-0.691,0.000,0.000,0.000,-222584
5.691169584,1103450217,3.227,-9.133,-0.730,0.000,0.000,0.000,-222926
5.694401167,1103453438,3.227,-9.133,-0.730,0.000,0.000,0.000,-222783
5.699725875,1103458659,3.227,-9.133,-0.730,0.000,0.000,0.000,-222295
5.704975,1103463880,3.227,-9.133,-0.730,0.000,0.000,0.000,-222544
5.709007917,1103468101,3.227,-9.133,-0.730,0.000,0.000,0.000,-222613
5.714260084,1103473322,3.227,-9.133,-0.730,0.000,0.000,0.000,-222502
5.718585417,1103477543,3.227,-9.133,-0.730,0.000,0.000,0.000,-222455
5.722915417,1103481764,3.266,-9.137,-0.691,0.000,0.000,0.000,-221935
5.726236709,1103484985,3.266,-9.137,-0.691,0.000,0.000,0.000,-222162
5.731385709,1103490206,3.266,-9.137,-0.691,0.000,0.000,0.000,-222300
5.736490375,1103495427,3.266,-9.137,-0.691,0.000,0.000,0.000,-221795
5.741550167,1103500648,3.266,-9.137,-0.691,0.000,0.000,0.000,-221335
5.746838292,1103505869,3.266,-9.137,-0.691,0.000,0.000,0.000,-223054
5.752090792,1103511090,3.305,-9.094,-0.578,0.000,0.000,0.000,-221793
5.755463417,1103514311,3.305,-9.094,-0.578,0.000,0.000,0.000,-221551
5.761689792,1103520532,3.305,-9.094,-0.578,0.000,0.000,0.000,-222175
5.767612417,1103526753,3.305,-9.094,-0.578,0.000,0.000,0.000,-222384
5.771897,1103530974,3.305,-9.094,-0.578,0.000,0.000,0.000,-222446
5.777129334,1103536195,3.305,-9.094,-0.578,0.000,0.000,0.000,-222518
5.78174475,1103540416,3.305,-9.094,-0.578,0.000,0.000,0.000,-222840
5.785534959,1103544637,3.266,-9.137,-0.691,0.000,0.000,0.000,-222725
5.788755,1103547858,3.266,-9.137,-0.691,0.000,0.000,0.000,-223082
5.795063959,1103554079,3.266,-9.137,-0.691,0.000,0.000,0.000,-222166
5.799202375,1103558300,3.266,-9.137,-0.691,0.000,0.000,0.000,-223089
5.804610334,1103562521,3.266,-9.137,-0.691,0.000,0.000,0.000,-221687
5.808637125,1103567742,3.266,-9.137,-0.691,0.000,0.000,0.000,-222664
5.81384825,1103572963,3.266,-9.137,-0.691,0.000,0.000,0.000,-222641
5.819125292,1103578184,3.305,-9.098,-0.691,0.000,0.000,0.000,-222681
5.822339792,1103581405,3.305,-9.098,-0.691,0.000,0.000,0.000,-222280
5.828540459,1103587626,3.305,-9.098,-0.691,0.000,0.000,0.000,-222520
5.832747792,1103591847,3.305,-9.098,-0.691,0.000,0.000,0.000,-222959
5.836968084,1103596068,3.305,-9.098,-0.691,0.000,0.000,0.000,-222490
5.842249959,1103601289,3.305,-9.098,-0.691,0.000,0.000,0.000,-222430
5.846438834,1103605510,3.305,-9.098,-0.691,0.000,0.000,0.000,-222774
5.850687667,1103609731,3.266,-9.133,-0.617,0.000,0.000,0.000,-222506
5.853921125,1103612952,3.266,-9.133,-0.617,0.000,0.000,0.000,-222389
5.860136667,1103619173,3.266,-9.133,-0.617,0.000,0.000,0.000,-222548
5.864307875,1103623394,3.266,-9.133,-0.617,0.000,0.000,0.000,-222145
5.869647417,1103627615,3.266,-9.133,-0.617,0.000,0.000,0.000,-221904
5.873208334,1103631836,3.266,-9.133,-0.617,0.000,0.000,0.000,-222939
5.877973584,1103637057,3.266,-9.133,-0.617,0.000,0.000,0.000,-222560
5.882181292,1103641263,3.266,-9.137,-0.730,0.000,0.000,0.000,-222560
5.88535825,1103644483,3.266,-9.137,-0.730,0.000,0.000,0.000,-222847
5.890800834,1103649704,3.266,-9.137,-0.730,0.000,0.000,0.000,-221942
5.894949,1103653925,3.266,-9.137,-0.730,0.000,0.000,0.000,-221815
5.900322667,1103659146,3.266,-9.137,-0.730,0.000,0.000,0.000,-222432
5.904337,1103663367,3.266,-9.137,-0.730,0.000,0.000,0.000,-222531
5.908445084,1103667590,3.266,-9.137,-0.730,0.000,0.000,0.000,-222251
5.913680917,1103672811,3.266,-9.137,-0.691,0.000,0.000,0.000,-222490
5.916991959,1103676032,3.266,-9.137,-0.691,0.000,0.000,0.000,-222526
5.923209584,1103682254,3.266,-9.137,-0.691,0.000,0.000,0.000,-222749
5.927501542,1103686476,3.266,-9.137,-0.691,0.000,0.000,0.000,-222290
5.932090459,1103690697,3.266,-9.137,-0.691,0.000,0.000,0.000,-221281
5.938310042,1103695918,3.266,-9.137,-0.691,0.000,0.000,0.000,-222349
5.941374167,1103700139,3.266,-9.137,-0.691,0.000,0.000,0.000,-221983
5.945325667,1103704360,3.266,-9.137,-0.691,0.000,0.000,0.000,-222134
5.948519959,1103707581,3.266,-9.137,-0.691,0.000,0.000,0.000,-222201
5.95387275,1103712802,3.266,-9.137,-0.691,0.000,0.000,0.000,-222522
5.9580545,1103717023,3.266,-9.137,-0.691,0.000,0.000,0.000,-221951
5.962441959,1103721244,3.266,-9.137,-0.691,0.000,0.000,0.000,-222545
5.966606209,1103725465,3.266,-9.137,-0.691,0.000,0.000,0.000,-222364
5.970635625,1103729686,3.266,-9.137,-0.691,0.000,0.000,0.000,-222774
5.975843,1103734907,3.266,-9.094,-0.656,0.000,0.000,0.000,-221974
5.978034584,1103737128,3.266,-9.094,-0.656,0.000,0.000,0.000,-223041
5.982217625,1103741349,3.266,-9.094,-0.656,0.000,0.000,0.000,-222859
5.986502834,1103745570,3.266,-9.094,-0.656,0.000,0.000,0.000,-222826
5.98976925,1103748791,3.266,-9.094,-0.656,0.000,0.000,0.000,-222871
5.994038,1103753012,3.266,-9.094,-0.656,0.000,0.000,0.000,-222740
5.998427375,1103757233,3.266,-9.176,-0.656,0.000,0.000,0.000,-223091
6.001863042,1103760454,3.266,-9.176,-0.656,0.000,0.000,0.000,-222047
6.008134417,1103766675,3.266,-9.176,-0.656,0.000,0.000,0.000,-223060
6.011797125,1103770896,3.266,-9.176,-0.656,0.000,0.000,0.000,-222635
6.019008542,1103778117,3.266,-9.176,-0.656,0.000,0.000,0.000,-222550
6.02326525,1103782338,3.266,-9.176,-0.656,0.000,0.000,0.000,-223176
6.027485834,1103786559,3.266,-9.176,-0.656,0.000,0.000,0.000,-222601
6.03178325,1103790780,3.266,-9.137,-0.691,0.000,0.000,0.000,-222281
6.034922292,1103794002,3.266,-9.137,-0.691,0.000,0.000,0.000,-222587
6.041183375,1103800223,3.266,-9.137,-0.691,0.000,0.000,0.000,-222579
6.04536,1103804444,3.266,-9.137,-0.691,0.000,0.000,0.000,-222340
6.049577334,1103808665,3.266,-9.137,-0.691,0.000,0.000,0.000,-221851
6.054774917,1103813886,3.266,-9.137,-0.691,0.000,0.000,0.000,-221924
6.060201792,1103819107,3.266,-9.137,-0.691,0.000,0.000,0.000,-221422
6.064359459,1103823328,3.305,-9.137,-0.691,0.000,0.000,0.000,-222510
6.067567709,1103826549,3.305,-9.137,-0.691,0.000,0.000,0.000,-222837
6.072890667,1103831770,3.305,-9.137,-0.691,0.000,0.000,0.000,-222437
6.077920375,1103836991,3.305,-9.137,-0.691,0.000,0.000,0.000,-222451
6.08211625,1103841212,3.305,-9.137,-0.691,0.000,0.000,0.000,-222354
6.086319167,1103845433,3.305,-9.137,-0.691,0.000,0.000,0.000,-222823
6.090622834,1103849654,3.305,-9.137,-0.691,0.000,0.000,0.000,-221739
6.093783792,1103852875,3.266,-9.133,-0.617,0.000,0.000,0.000,-222047
6.09699025,1103856096,3.266,-9.133,-0.617,0.000,0.000,0.000,-221748
6.102656209,1103861317,3.266,-9.133,-0.617,0.000,0.000,0.000,-222825
6.106673542,1103865538,3.266,-9.133,-0.617,0.000,0.000,0.000,-222587
6.109722917,1103868760,3.266,-9.133,-0.617,0.000,0.000,0.000,-222824
6.113941542,1103872981,3.266,-9.133,-0.617,0.000,0.000,0.000,-222265
6.119131875,1103878202,3.266,-9.133,-0.617,0.000,0.000,0.000,-222657
6.123356459,1103882423,3.266,-9.055,-0.730,0.000,0.000,0.000,-221845
6.126550917,1103885644,3.266,-9.055,-0.730,0.000,0.000,0.000,-221663
6.131875459,1103890865,3.266,-9.055,-0.730,0.000,0.000,0.000,-222287
6.137025834,1103896086,3.266,-9.055,-0.730,0.000,0.000,0.000,-222050
6.142215459,1103901307,3.266,-9.055,-0.730,0.000,0.000,0.000,-222945
6.1476645,1103906528,3.305,-9.133,-0.656,0.000,0.000,0.000,-222695
6.150700417,1103909749,3.305,-9.133,-0.656,0.000,0.000,0.000,-222513
6.156993584,1103915970,3.305,-9.133,-0.656,0.000,0.000,0.000,-222411
6.161169209,1103920191,3.305,-9.133,-0.656,0.000,0.000,0.000,-222433
6.165555125,1103924412,3.305,-9.133,-0.656,0.000,0.000,0.000,-222755
6.170516584,1103928633,3.305,-9.133,-0.656,0.000,0.000,0.000,-222397
6.173720417,1103932854,3.305,-9.133,-0.656,0.000,0.000,0.000,-222085
6.179013792,1103938075,3.227,-9.176,-0.691,0.000,0.000,0.000,-222702
6.182225792,1103941296,3.227,-9.176,-0.691,0.000,0.000,0.000,-221965
6.187733584,1103946517,3.227,-9.176,-0.691,0.000,0.000,0.000,-222961
6.191554375,1103950723,3.227,-9.176,-0.691,0.000,0.000,0.000,-222961
6.197129917,1103955943,3.227,-9.176,-0.691,0.000,0.000,0.000,-222436
6.201327834,1103960164,3.227,-9.176,-0.691,0.000,0.000,0.000,-222696
6.204697875,1103963385,3.227,-9.176,-0.691,0.000,0.000,0.000,-222545
6.208501917,1103967606,3.227,-9.133,-0.691,0.000,0.000,0.000,-222268
6.211724125,1103970827,3.227,-9.133,-0.691,0.000,0.000,0.000,-221523
6.217985917,1103977048,3.227,-9.133,-0.691,0.000,0.000,0.000,-222648
6.222170292,1103981269,3.227,-9.133,-0.691,0.000,0.000,0.000,-222548
6.226399625,1103985490,3.227,-9.133,-0.691,0.000,0.000,0.000,-222036
6.231673625,1103989711,3.227,-9.133,-0.691,0.000,0.000,0.000,-222254
6.234877459,1103993932,3.227,-9.133,-0.691,0.000,0.000,0.000,-222634
6.240083917,1103999153,3.266,-9.137,-0.691,0.000,0.000,0.000,-222465
6.243303792,1104002374,3.266,-9.137,-0.691,0.000,0.000,0.000,-222145
6.24959525,1104008595,3.266,-9.137,-0.691,0.000,0.000,0.000,-222058
6.253751542,1104012816,3.266,-9.137,-0.691,0.000,0.000,0.000,-222702
6.257997292,1104017037,3.266,-9.137,-0.691,0.000,0.000,0.000,-222211
6.2622355,1104021258,3.266,-9.137,-0.691,0.000,0.000,0.000,-222441
6.267346459,1104026479,3.266,-9.137,-0.691,0.000,0.000,0.000,-222096
6.2716065,1104030700,3.266,-9.137,-0.691,0.000,0.000,0.000,-222734
6.274857709,1104033921,3.266,-9.137,-0.691,0.000,0.000,0.000,-221887
6.282125167,1104041142,3.266,-9.137,-0.691,0.000,0.000,0.000,-222586
6.286267834,1104045363,3.266,-9.137,-0.691,0.000,0.000,0.000,-222908
6.290575084,1104049584,3.266,-9.137,-0.691,0.000,0.000,0.000,-221969
6.294724209,1104053805,3.266,-9.137,-0.691,0.000,0.000,0.000,-221675
6.298906875,1104058026,3.266,-9.137,-0.691,0.000,0.000,0.000,-222661
6.302864292,1104061247,3.266,-9.098,-0.730,0.000,0.000,0.000,-221822
6.304381667,1104063469,3.266,-9.098,-0.730,0.000,0.000,0.000,-223004
6.309597959,1104068690,3.266,-9.098,-0.730,0.000,0.000,0.000,-222480
6.313831,1104072911,3.227,-9.133,-0.730,0.000,0.000,0.000,-222447
6.317145667,1104076132,3.227,-9.133,-0.730,0.000,0.000,0.000,-221914
6.322286167,1104081353,3.227,-9.133,-0.730,0.000,0.000,0.000,-222255
6.326588542,1104085574,3.227,-9.133,-0.730,0.000,0.000,0.000,-221734
6.329805125,1104088795,3.227,-9.133,-0.730,0.000,0.000,0.000,-221450
6.334175917,1104093016,3.227,-9.133,-0.730,0.000,0.000,0.000,-222808
6.338647834,1104097237,3.227,-9.133,-0.730,0.000,0.000,0.000,-222733
6.341442167,1104100458,3.305,-9.133,-0.578,0.000,0.000,0.000,-221967
6.343591459,1104102679,3.305,-9.133,-0.578,0.000,0.000,0.000,-222051
6.347814334,1104106900,3.305,-9.133,-0.578,0.000,0.000,0.000,-223092
6.352055709,1104111121,3.305,-9.133,-0.578,0.000,0.000,0.000,-222427
6.357371459,1104116342,3.305,-9.133,-0.578,0.000,0.000,0.000,-222134
6.3620285,1104120563,3.305,-9.133,-0.578,0.000,0.000,0.000,-222534
6.365928667,1104124784,3.305,-9.133,-0.578,0.000,0.000,0.000,-222348
6.369327042,1104128005,3.305,-9.133,-0.656,0.000,0.000,0.000,-222933
6.371411875,1104130226,3.305,-9.133,-0.656,0.000,0.000,0.000,-222150
6.375304125,1104134447,3.305,-9.133,-0.656,0.000,0.000,0.000,-222308
6.379628625,1104138668,3.305,-9.133,-0.656,0.000,0.000,0.000,-222157
6.385132375,1104143889,3.305,-9.133,-0.656,0.000,0.000,0.000,-222706
6.389167834,1104148110,3.305,-9.133,-0.656,0.000,0.000,0.000,-222492
6.393523792,1104152331,3.305,-9.133,-0.656,0.000,0.000,0.000,-222162
6.397703334,1104156552,3.305,-9.133,-0.656,0.000,0.000,0.000,-222074
6.399935,1104158773,3.305,-9.133,-0.656,0.000,0.000,0.000,-222019
6.405279959,1104163994,3.305,-9.133,-0.656,0.000,0.000,0.000,-222143
6.409267917,1104168215,3.305,-9.133,-0.656,0.000,0.000,0.000,-222821
6.412308834,1104171436,3.305,-9.133,-0.656,0.000,0.000,0.000,-222580
6.417569167,1104176657,3.305,-9.133,-0.656,0.000,0.000,0.000,-222071
6.421806542,1104180878,3.305,-9.133,-0.656,0.000,0.000,0.000,-222703
6.42503475,1104184099,3.266,-9.137,-0.691,0.000,0.000,0.000,-222393
6.43035225,1104189320,3.266,-9.137,-0.691,0.000,0.000,0.000,-221748
6.434483459,1104193541,3.266,-9.137,-0.691,0.000,0.000,0.000,-222105
6.43970175,1104198762,3.266,-9.137,-0.691,0.000,0.000,0.000,-222733
6.444966625,1104203983,3.266,-9.137,-0.691,0.000,0.000,0.000,-222023
6.450146125,1104209204,3.266,-9.094,-0.656,0.000,0.000,0.000,-222558
6.453336792,1104212425,3.266,-9.094,-0.656,0.000,0.000,0.000,-222265
6.459600625,1104218646,3.266,-9.094,-0.656,0.000,0.000,0.000,-221725
6.463820792,1104222867,3.266,-9.094,-0.656,0.000,0.000,0.000,-222406
6.469296334,1104227088,3.266,-9.094,-0.656,0.000,0.000,0.000,-222549
6.47223575,1104231309,3.266,-9.094,-0.656,0.000,0.000,0.000,-221996
6.477467417,1104236530,3.266,-9.094,-0.656,0.000,0.000,0.000,-221823
6.481733042,1104240751,3.227,-9.094,-0.691,0.000,0.000,0.000,-222870
6.484876917,1104243972,3.227,-9.094,-0.691,0.000,0.000,0.000,-222250
6.490121292,1104249193,3.227,-9.094,-0.691,0.000,0.000,0.000,-222136
6.495400917,1104254414,3.227,-9.094,-0.691,0.000,0.000,0.000,-221731
6.499651125,1104258635,3.227,-9.094,-0.691,0.000,0.000,0.000,-222428
6.504914667,1104263856,3.227,-9.094,-0.691,0.000,0.000,0.000,-222411
6.508997667,1104268077,3.227,-9.094,-0.691,0.000,0.000,0.000,-223025
6.513150292,1104272298,3.305,-9.133,-0.617,0.000,0.000,0.000,-222449
6.516436209,1104275519,3.305,-9.133,-0.617,0.000,0.000,0.000,-222313
6.52272925,1104281740,3.305,-9.133,-0.617,0.000,0.000,0.000,-222571
6.526941542,1104285961,3.305,-9.133,-0.617,0.000,0.000,0.000,-221888
6.531337417,1104290182,3.305,-9.133,-0.617,0.000,0.000,0.000,-222498
6.538447584,1104297403,3.305,-9.133,-0.617,0.000,0.000,0.000,-222640
6.543538417,1104302624,3.305,-9.133,-0.617,0.000,0.000,0.000,-222245
6.547798084,1104306845,3.266,-9.133,-0.656,0.000,0.000,0.000,-222195
6.550110209,1104309066,3.266,-9.133,-0.656,0.000,0.000,0.000,-222918
6.554251875,1104313287,3.266,-9.133,-0.656,0.000,0.000,0.000,-222365
6.558514959,1104317508,3.266,-9.133,-0.656,0.000,0.000,0.000,-222353
6.562932125,1104321729,3.266,-9.133,-0.656,0.000,0.000,0.000,-222230
6.567009917,1104325950,3.266,-9.133,-0.656,0.000,0.000,0.000,-222980
6.570343334,1104329171,3.266,-9.133,-0.656,0.000,0.000,0.000,-222335
6.574244,1104333392,3.266,-9.137,-0.730,0.000,0.000,0.000,-221495
6.577550917,1104336613,3.266,-9.137,-0.730,0.000,0.000,0.000,-222544
6.582767292,1104341834,3.266,-9.137,-0.730,0.000,0.000,0.000,-222594
6.5870635,1104346055,3.266,-9.137,-0.730,0.000,0.000,0.000,-222595
6.592313209,1104351278,3.266,-9.137,-0.730,0.000,0.000,0.000,-222586
6.597673209,1104356499,3.305,-9.133,-0.656,0.000,0.000,0.000,-222106
6.599904209,1104358720,3.305,-9.133,-0.656,0.000,0.000,0.000,-222476
6.605858292,1104363941,3.305,-9.133,-0.656,0.000,0.000,0.000,-221901
6.609039792,1104368162,3.305,-9.133,-0.656,0.000,0.000,0.000,-221902
6.613298167,1104372383,3.305,-9.133,-0.656,0.000,0.000,0.000,-222788
6.617656209,1104376604,3.266,-9.094,-0.770,0.000,0.000,0.000,-222640
6.619741917,1104378825,3.266,-9.094,-0.770,0.000,0.000,0.000,-223236
6.624962709,1104384046,3.266,-9.094,-0.770,0.000,0.000,0.000,-222532
6.62924875,1104388268,3.266,-9.094,-0.770,0.000,0.000,0.000,-223192
6.632375542,1104391488,3.266,-9.094,-0.770,0.000,0.000,0.000,-223103
6.638165584,1104396709,3.266,-9.094,-0.770,0.000,0.000,0.000,-222943
6.641932,1104400930,3.266,-9.137,-0.691,0.000,0.000,0.000,-222481
6.644087917,1104403151,3.266,-9.137,-0.691,0.000,0.000,0.000,-222399
6.648426834,1104407372,3.266,-9.137,-0.691,0.000,0.000,0.000,-222486
6.652520209,1104411593,3.266,-9.137,-0.691,0.000,0.000,0.000,-222546
6.65673775,1104415814,3.266,-9.137,-0.691,0.000,0.000,0.000,-222914
6.661974375,1104421035,3.266,-9.137,-0.691,0.000,0.000,0.000,-222140
6.667188459,1104426256,3.266,-9.137,-0.691,0.000,0.000,0.000,-221802
6.670497417,1104429477,3.227,-9.094,-0.691,0.000,0.000,0.000,-222358
6.673572292,1104432698,3.227,-9.094,-0.691,0.000,0.000,0.000,-222633
6.679878584,1104438919,3.227,-9.094,-0.691,0.000,0.000,0.000,-222519
6.684084459,1104443140,3.227,-9.094,-0.691,0.000,0.000,0.000,-222921
6.68837925,1104447361,3.227,-9.094,-0.691,0.000,0.000,0.000,-222206
6.6927335,1104451582,3.227,-9.094,-0.691,0.000,0.000,0.000,-221403
6.6979895,1104456803,3.227,-9.094,-0.691,0.000,0.000,0.000,-222765
6.70221375,1104461024,3.227,-9.137,-0.656,0.000,0.000,0.000,-222593
6.705170209,1104464245,3.227,-9.137,-0.656,0.000,0.000,0.000,-223111
6.710406,1104469467,3.227,-9.137,-0.656,0.000,0.000,0.000,-222283
6.71566275,1104474688,3.227,-9.137,-0.656,0.000,0.000,0.000,-222978
6.719983,1104478909,3.227,-9.137,-0.656,0.000,0.000,0.000,-223010
6.725345709,1104484130,3.227,-9.137,-0.656,0.000,0.000,0.000,-222755
6.729495334,1104488351,3.227,-9.137,-0.656,0.000,0.000,0.000,-221910
6.733878084,1104492572,3.305,-9.176,-0.656,0.000,0.000,0.000,-221928
6.737641709,1104495793,3.305,-9.176,-0.656,0.000,0.000,0.000,-222783
6.742947542,1104502014,3.305,-9.176,-0.656,0.000,0.000,0.000,-222479
6.747099375,1104506235,3.305,-9.176,-0.656,0.000,0.000,0.000,-222165
6.751385667,1104510456,3.305,-9.176,-0.656,0.000,0.000,0.000,-222552
6.756735709,1104515677,3.305,-9.176,-0.656,0.000,0.000,0.000,-221818
6.760951375,1104519898,3.305,-9.176,-0.656,0.000,0.000,0.000,-222636
6.76534525,1104524119,3.266,-9.137,-0.730,0.000,0.000,0.000,-223147
6.768342125,1104527340,3.266,-9.137,-0.730,0.000,0.000,0.000,-222559
6.773466834,1104532561,3.266,-9.137,-0.730,0.000,0.000,0.000,-222257
6.778743459,1104537782,3.266,-9.137,-0.730,0.000,0.000,0.000,-222183
6.782946334,1104542003,3.266,-9.137,-0.730,0.000,0.000,0.000,-222911
6.790261834,1104549224,3.266,-9.137,-0.730,0.000,0.000,0.000,-222547
6.794394875,1104553445,3.266,-9.137,-0.730,0.000,0.000,0.000,-222337
6.798627875,1104557666,3.227,-9.133,-0.691,0.000,0.000,0.000,-222844
6.801833042,1104560887,3.227,-9.133,-0.691,0.000,0.000,0.000,-223022
6.808472459,1104567108,3.227,-9.133,-0.691,0.000,0.000,0.000,-221544
6.812271875,1104571329,3.227,-9.133,-0.691,0.000,0.000,0.000,-222355
6.81751375,1104576550,3.227,-9.133,-0.691,0.000,0.000,0.000,-222135
6.822819667,1104581771,3.227,-9.133,-0.691,0.000,0.000,0.000,-222334
6.827944834,1104586992,3.227,-9.137,-0.656,0.000,0.000,0.000,-222093
6.831156,1104590213,3.227,-9.137,-0.656,0.000,0.000,0.000,-222137
6.838641459,1104596434,3.227,-9.137,-0.656,0.000,0.000,0.000,-222048
6.8417985,1104600655,3.227,-9.137,-0.656,0.000,0.000,0.000,-222849
6.845819584,1104604876,3.227,-9.137,-0.656,0.000,0.000,0.000,-221873
6.850024292,1104609097,3.227,-9.137,-0.656,0.000,0.000,0.000,-222057
6.854295167,1104613318,3.227,-9.137,-0.656,0.000,0.000,0.000,-222796
6.859479834,1104618539,3.305,-9.137,-0.730,0.000,0.000,0.000,-221591
6.862673834,1104621760,3.305,-9.137,-0.730,0.000,0.000,0.000,-222799
6.867915584,1104626981,3.305,-9.137,-0.730,0.000,0.000,0.000,-222312
6.873103167,1104632202,3.305,-9.137,-0.730,0.000,0.000,0.000,-222144
6.877256375,1104636423,3.305,-9.137,-0.730,0.000,0.000,0.000,-222586
6.881516792,1104640644,3.305,-9.137,-0.730,0.000,0.000,0.000,-222914
6.885690625,1104644865,3.305,-9.137,-0.730,0.000,0.000,0.000,-222437
6.890947625,1104650086,3.227,-9.137,-0.656,0.000,0.000,0.000,-222725
6.894110417,1104653307,3.227,-9.137,-0.656,0.000,0.000,0.000,-222531
6.900344667,1104659528,3.227,-9.137,-0.656,0.000,0.000,0.000,-222525
6.904539292,1104663749,3.227,-9.137,-0.656,0.000,0.000,0.000,-222895
6.908743667,1104667970,3.227,-9.137,-0.656,0.000,0.000,0.000,-222876
6.912962667,1104672191,3.227,-9.137,-0.656,0.000,0.000,0.000,-222217
6.918195625,1104677412,3.227,-9.137,-0.656,0.000,0.000,0.000,-222790
6.921384375,1104680633,3.227,-9.098,-0.656,0.000,0.000,0.000,-222648
6.9337765,1104682854,3.227,-9.098,-0.656,0.000,0.000,0.000,-222624
6.933861917,1104687075,3.227,-9.098,-0.656,0.000,0.000,0.000,-222408
6.933938584,1104691296,3.227,-9.098,-0.656,0.000,0.000,0.000,-222736
6.937369875,1104696517,3.227,-9.098,-0.656,0.000,0.000,0.000,-222943
6.941509375,1104700738,3.227,-9.098,-0.656,0.000,0.000,0.000,-222963
6.945824709,1104704959,3.227,-9.098,-0.656,0.000,0.000,0.000,-222321
6.949996334,1104709180,3.227,-9.094,-0.691,0.000,0.000,0.000,-222083
6.953238959,1104712401,3.227,-9.094,-0.691,0.000,0.000,0.000,-222294
6.966957584,1104718622,3.227,-9.094,-0.691,0.000,0.000,0.000,-222066
6.967054292,1104722843,3.227,-9.094,-0.691,0.000,0.000,0.000,-222527
6.96715025,1104726064,3.227,-9.094,-0.691,0.000,0.000,0.000,-222537
6.971098542,1104730285,3.227,-9.094,-0.691,0.000,0.000,0.000,-222225
6.975352625,1104734506,3.227,-9.094,-0.691,0.000,0.000,0.000,-222198
6.979568209,1104738727,3.266,-9.133,-0.578,0.000,0.000,0.000,-222402
6.982787625,1104741948,3.266,-9.133,-0.578,0.000,0.000,0.000,-222066
6.98801325,1104747169,3.266,-9.133,-0.578,0.000,0.000,0.000,-222546
6.992178209,1104751390,3.266,-9.133,-0.578,0.000,0.000,0.000,-222151
7.000445792,1104755611,3.266,-9.133,-0.578,0.000,0.000,0.000,-223201
7.000598417,1104759832,3.266,-9.133,-0.578,0.000,0.000,0.000,-222343
7.004871084,1104764053,3.266,-9.133,-0.578,0.000,0.000,0.000,-222723
7.009108667,1104768274,3.266,-9.098,-0.691,0.000,0.000,0.000,-222537
7.011332625,1104770495,3.266,-9.098,-0.691,0.000,0.000,0.000,-221848
7.015562292,1104774716,3.266,-9.098,-0.691,0.000,0.000,0.000,-222708
7.019717292,1104778937,3.266,-9.098,-0.691,0.000,0.000,0.000,-222993
7.024905917,1104784158,3.266,-9.098,-0.691,0.000,0.000,0.000,-221926
7.0335675,1104789379,3.227,-9.137,-0.617,0.000,0.000,0.000,-221939
7.033666709,1104792600,3.227,-9.137,-0.617,0.000,0.000,0.000,-222147
7.040667292,1104799821,3.227,-9.137,-0.617,0.000,0.000,0.000,-222279
7.044892792,1104804027,3.227,-9.137,-0.617,0.000,0.000,0.000,-222279
7.0480805,1104807247,3.227,-9.137,-0.617,0.000,0.000,0.000,-221734
7.052292334,1104811468,3.227,-9.137,-0.617,0.000,0.000,0.000,-222066
7.056513417,1104815689,3.227,-9.137,-0.617,0.000,0.000,0.000,-222349
7.066904542,1104818910,3.266,-9.133,-0.656,0.000,0.000,0.000,-222552
7.067012084,1104822131,3.266,-9.133,-0.656,0.000,0.000,0.000,-221950
7.068105459,1104827352,3.266,-9.133,-0.656,0.000,0.000,0.000,-222554
7.073439292,1104832573,3.266,-9.133,-0.656,0.000,0.000,0.000,-222605
7.077673584,1104836794,3.266,-9.133,-0.656,0.000,0.000,0.000,-222296
7.081835709,1104841015,3.266,-9.133,-0.656,0.000,0.000,0.000,-222304
7.086102459,1104845236,3.266,-9.133,-0.656,0.000,0.000,0.000,-222704
7.089229625,1104848458,3.266,-9.137,-0.691,0.000,0.000,0.000,-223266
7.100232917,1104851679,3.266,-9.137,-0.691,0.000,0.000,0.000,-222833
7.100305375,1104857900,3.266,-9.137,-0.691,0.000,0.000,0.000,-222182
7.102967084,1104862121,3.266,-9.137,-0.691,0.000,0.000,0.000,-222003
7.107212,1104866342,3.266,-9.137,-0.691,0.000,0.000,0.000,-222423
7.111346875,1104870563,3.266,-9.137,-0.691,0.000,0.000,0.000,-222030
7.115598042,1104874784,3.266,-9.137,-0.691,0.000,0.000,0.000,-222136
7.120835542,1104880005,3.227,-9.098,-0.617,0.000,0.000,0.000,-221704
7.123980834,1104883226,3.227,-9.098,-0.617,0.000,0.000,0.000,-222160
7.133537875,1104889447,3.227,-9.098,-0.617,0.000,0.000,0.000,-222593
7.134514209,1104893668,3.227,-9.098,-0.617,0.000,0.000,0.000,-222209
7.138750959,1104897889,3.227,-9.098,-0.617,0.000,0.000,0.000,-222592
7.142950334,1104902110,3.227,-9.098,-0.617,0.000,0.000,0.000,-223059
7.14820625,1104907331,3.227,-9.098,-0.617,0.000,0.000,0.000,-222567
7.15240975,1104911552,3.266,-9.055,-0.730,0.000,0.000,0.000,-222855
7.155626084,1104914773,3.266,-9.055,-0.730,0.000,0.000,0.000,-221795
7.166968792,1104920994,3.266,-9.055,-0.730,0.000,0.000,0.000,-223224
7.167046625,1104925215,3.266,-9.055,-0.730,0.000,0.000,0.000,-222155
7.169258709,1104928436,3.266,-9.055,-0.730,0.000,0.000,0.000,-221852
7.17350075,1104932657,3.266,-9.055,-0.730,0.000,0.000,0.000,-222622
7.177658667,1104936878,3.266,-9.055,-0.730,0.000,0.000,0.000,-222041
7.181925042,1104941099,3.266,-9.137,-0.730,0.000,0.000,0.000,-221893
7.185161667,1104944320,3.266,-9.137,-0.730,0.000,0.000,0.000,-222676
7.190323959,1104949541,3.266,-9.137,-0.730,0.000,0.000,0.000,-222227
7.200517917,1104953762,3.266,-9.137,-0.730,0.000,0.000,0.000,-221950
7.200783792,1104958983,3.266,-9.137,-0.730,0.000,0.000,0.000,-223024
7.204034625,1104963204,3.266,-9.137,-0.730,0.000,0.000,0.000,-222652
7.208214292,1104967425,3.266,-9.137,-0.730,0.000,0.000,0.000,-222061
7.213511959,1104972646,3.227,-9.137,-0.617,0.000,0.000,0.000,-222398
7.216699959,1104975867,3.227,-9.137,-0.617,0.000,0.000,0.000,-222826
7.222943334,1104982088,3.227,-9.137,-0.617,0.000,0.000,0.000,-221877
7.233641542,1104986309,3.227,-9.137,-0.617,0.000,0.000,0.000,-221936
7.233747917,1104989530,3.227,-9.137,-0.617,0.000,0.000,0.000,-222585
7.234593042,1104993751,3.227,-9.137,-0.617,0.000,0.000,0.000,-221182
7.238822,1104997972,3.227,-9.137,-0.617,0.000,0.000,0.000,-222220
7.243038834,1105002193,3.227,-9.176,-0.730,0.000,0.000,0.000,-222425
7.245263042,1105004414,3.227,-9.176,-0.730,0.000,0.000,0.000,-222976
7.250505167,1105009635,3.227,-9.176,-0.730,0.000,0.000,0.000,-222574
7.254718209,1105013856,3.227,-9.176,-0.730,0.000,0.000,0.000,-221760
7.258939334,1105018077,3.227,-9.176,-0.730,0.000,0.000,0.000,-222014
7.266902542,1105022298,3.227,-9.176,-0.730,0.000,0.000,0.000,-222320
7.268377125,1105027519,3.227,-9.176,-0.730,0.000,0.000,0.000,-222143
7.272586334,1105031740,3.266,-9.133,-0.656,0.000,0.000,0.000,-222414
7.275761209,1105034961,3.266,-9.133,-0.656,0.000,0.000,0.000,-222309
7.281976667,1105041182,3.266,-9.133,-0.656,0.000,0.000,0.000,-222689
7.286248959,1105045403,3.266,-9.133,-0.656,0.000,0.000,0.000,-222996
7.289465292,1105048624,3.266,-9.133,-0.656,0.000,0.000,0.000,-221792
7.293606375,1105052845,3.266,-9.133,-0.656,0.000,0.000,0.000,-222081
7.300240959,1105059066,3.266,-9.133,-0.656,0.000,0.000,0.000,-222301
7.304149209,1105063287,3.266,-9.133,-0.656,0.000,0.000,0.000,-222396
7.307365542,1105066508,3.266,-9.133,-0.656,0.000,0.000,0.000,-222465
7.312599084,1105071729,3.266,-9.133,-0.656,0.000,0.000,0.000,-221832
7.317808917,1105076950,3.266,-9.133,-0.656,0.000,0.000,0.000,-222139
7.323029875,1105082171,3.266,-9.133,-0.656,0.000,0.000,0.000,-223081
7.328263625,1105087392,3.266,-9.133,-0.656,0.000,0.000,0.000,-222534
7.333573875,1105092613,3.266,-9.133,-0.656,0.000,0.000,0.000,-221783
7.338733542,1105097834,3.266,-9.094,-0.656,0.000,0.000,0.000,-221864
7.341929834,1105101055,3.266,-9.094,-0.656,0.000,0.000,0.000,-222791
7.347172542,1105106276,3.266,-9.094,-0.656,0.000,0.000,0.000,-222104
7.351314042,1105110497,3.266,-9.094,-0.656,0.000,0.000,0.000,-222131
7.354564,1105113718,3.266,-9.094,-0.656,0.000,0.000,0.000,-222750
7.359758542,1105118939,3.266,-9.094,-0.656,0.000,0.000,0.000,-222549
7.366924709,1105124160,3.266,-9.094,-0.656,0.000,0.000,0.000,-222188
7.370292667,1105129381,3.266,-9.055,-0.691,0.000,0.000,0.000,-222367
7.372497292,1105131602,3.266,-9.055,-0.691,0.000,0.000,0.000,-222147
7.377666,1105136823,3.266,-9.055,-0.691,0.000,0.000,0.000,-222280
7.38190925,1105141044,3.266,-9.055,-0.691,0.000,0.000,0.000,-222773
7.386143709,1105145265,3.266,-9.055,-0.691,0.000,0.000,0.000,-222124
7.390340542,1105149486,3.266,-9.055,-0.691,0.000,0.000,0.000,-222187
7.394519875,1105153707,3.266,-9.098,-0.730,0.000,0.000,0.000,-222172
7.400267,1105156928,3.266,-9.098,-0.730,0.000,0.000,0.000,-222368
7.404003625,1105163149,3.266,-9.098,-0.730,0.000,0.000,0.000,-222209
7.408174125,1105167370,3.266,-9.098,-0.730,0.000,0.000,0.000,-222057
7.412463042,1105171591,3.266,-9.098,-0.730,0.000,0.000,0.000,-222063
7.41869125,1105177812,3.266,-9.098,-0.730,0.000,0.000,0.000,-222581
7.422877125,1105182033,3.266,-9.098,-0.730,0.000,0.000,0.000,-222630
7.427146375,1105186256,3.266,-9.133,-0.617,0.000,0.000,0.000,-222589
7.433561417,1105188476,3.266,-9.133,-0.617,0.000,0.000,0.000,-222168
7.434595417,1105193697,3.266,-9.133,-0.617,0.000,0.000,0.000,-222739
7.438784709,1105197918,3.266,-9.133,-0.617,0.000,0.000,0.000,-222752
7.443065167,1105202139,3.266,-9.133,-0.617,0.000,0.000,0.000,-222594
7.447240917,1105206360,3.266,-9.133,-0.617,0.000,0.000,0.000,-221727
7.451451,1105210581,3.266,-9.098,-0.730,0.000,0.000,0.000,-222042
7.4546995,1105213802,3.266,-9.098,-0.730,0.000,0.000,0.000,-221839
7.460962209,1105220023,3.266,-9.098,-0.730,0.000,0.000,0.000,-221974
7.467193709,1105224245,3.266,-9.098,-0.730,0.000,0.000,0.000,-222286
7.469334334,1105228465,3.266,-9.098,-0.730,0.000,0.000,0.000,-222843
7.473573,1105232686,3.266,-9.098,-0.730,0.000,0.000,0.000,-222839
7.478782334,1105237907,3.266,-9.098,-0.730,0.000,0.000,0.000,-222039
7.483028292,1105242128,3.227,-9.133,-0.691,0.000,0.000,0.000,-222981
7.485218375,1105244349,3.227,-9.133,-0.691,0.000,0.000,0.000,-222394
7.490453875,1105249570,3.227,-9.133,-0.691,0.000,0.000,0.000,-222074
7.494630292,1105253791,3.227,-9.133,-0.691,0.000,0.000,0.000,-222391
7.500552625,1105258012,3.227,-9.133,-0.691,0.000,0.000,0.000,-222593
7.503103292,1105262233,3.227,-9.133,-0.691,0.000,0.000,0.000,-222145
7.50829525,1105267455,3.227,-9.133,-0.691,0.000,0.000,0.000,-222322
7.512554625,1105271676,3.305,-9.176,-0.617,0.000,0.000,0.000,-222311
7.515769959,1105274897,3.305,-9.176,-0.617,0.000,0.000,0.000,-223380
7.521962375,1105281118,3.305,-9.176,-0.617,0.000,0.000,0.000,-222672
7.526244209,1105285339,3.305,-9.176,-0.617,0.000,0.000,0.000,-222938
7.533627084,1105289560,3.305,-9.176,-0.617,0.000,0.000,0.000,-222338
7.535637417,1105294781,3.305,-9.176,-0.617,0.000,0.000,0.000,-222722
7.540905834,1105300002,3.305,-9.176,-0.617,0.000,0.000,0.000,-222164
7.547160125,1105306223,3.227,-9.137,-0.656,0.000,0.000,0.000,-221433
7.549327584,1105308444,3.227,-9.137,-0.656,0.000,0.000,0.000,-222380
7.5535235,1105312665,3.227,-9.137,-0.656,0.000,0.000,0.000,-222818
7.558801375,1105317886,3.227,-9.137,-0.656,0.000,0.000,0.000,-222099
7.562970417,1105322107,3.227,-9.137,-0.656,0.000,0.000,0.000,-222539
7.5671965,1105326328,3.227,-9.137,-0.656,0.000,0.000,0.000,-221735
7.571461042,1105330549,3.227,-9.137,-0.656,0.000,0.000,0.000,-222657
7.575666084,1105334770,3.227,-9.133,-0.730,0.000,0.000,0.000,-222635
7.577889875,1105336991,3.227,-9.133,-0.730,0.000,0.000,0.000,-222463
7.583106084,1105342212,3.227,-9.133,-0.730,0.000,0.000,0.000,-221827
7.58729875,1105346433,3.227,-9.133,-0.730,0.000,0.000,0.000,-222488
7.590560834,1105349654,3.227,-9.133,-0.730,0.000,0.000,0.000,-222282
7.594797042,1105353875,3.227,-9.133,-0.730,0.000,0.000,0.000,-221744
7.600312417,1105358096,3.227,-9.133,-0.730,0.000,0.000,0.000,-222201
7.60217975,1105361317,3.266,-9.094,-0.617,0.000,0.000,0.000,-222975
7.604444542,1105363538,3.266,-9.094,-0.617,0.000,0.000,0.000,-222556
7.608716667,1105367759,3.266,-9.094,-0.617,0.000,0.000,0.000,-221649
7.612921834,1105371980,3.266,-9.094,-0.617,0.000,0.000,0.000,-222096
7.618122125,1105377201,3.266,-9.094,-0.617,0.000,0.000,0.000,-222177
7.622340667,1105381422,3.266,-9.094,-0.617,0.000,0.000,0.000,-222553
7.626581209,1105385643,3.266,-9.094,-0.617,0.000,0.000,0.000,-221434
7.629806459,1105388864,3.305,-9.098,-0.691,0.000,0.000,0.000,-222547
7.632003,1105391085,3.305,-9.098,-0.691,0.000,0.000,0.000,-222638
7.637228042,1105396306,3.305,-9.098,-0.691,0.000,0.000,0.000,-222304
7.642464792,1105401527,3.305,-9.098,-0.691,0.000,0.000,0.000,-222274
7.64566025,1105404748,3.305,-9.098,-0.691,0.000,0.000,0.000,-221865
7.649925584,1105408969,3.305,-9.098,-0.691,0.000,0.000,0.000,-222766
7.654186625,1105413190,3.305,-9.098,-0.691,0.000,0.000,0.000,-222720
7.658344667,1105417411,3.266,-9.133,-0.617,0.000,0.000,0.000,-222127
7.660606625,1105419632,3.266,-9.133,-0.617,0.000,0.000,0.000,-222060
7.665805667,1105424853,3.266,-9.133,-0.617,0.000,0.000,0.000,-222391
7.670310667,1105429074,3.266,-9.133,-0.617,0.000,0.000,0.000,-223499
7.673693,1105432295,3.266,-9.133,-0.617,0.000,0.000,0.000,-222839
7.678479709,1105437516,3.266,-9.133,-0.617,0.000,0.000,0.000,-221874
7.683691125,1105442737,3.266,-9.133,-0.617,0.000,0.000,0.000,-223229
7.687980584,1105446958,3.266,-9.098,-0.691,0.000,0.000,0.000,-222415
7.690144875,1105449179,3.266,-9.098,-0.691,0.000,0.000,0.000,-221755
7.695444334,1105454400,3.266,-9.098,-0.691,0.000,0.000,0.000,-222636
7.700806959,1105459621,3.266,-9.098,-0.691,0.000,0.000,0.000,-223146
7.704835959,1105463842,3.266,-9.098,-0.691,0.000,0.000,0.000,-222394
7.708981459,1105468063,3.266,-9.098,-0.691,0.000,0.000,0.000,-222386
7.713227292,1105472284,3.266,-9.098,-0.691,0.000,0.000,0.000,-222658
7.718455167,1105477505,3.227,-9.133,-0.691,0.000,0.000,0.000,-222836
7.720705292,1105479726,3.227,-9.133,-0.691,0.000,0.000,0.000,-222761
7.725990209,1105484947,3.227,-9.133,-0.691,0.000,0.000,0.000,-222954
7.73031575,1105489168,3.227,-9.133,-0.691,0.000,0.000,0.000,-222385
7.733643542,1105492389,3.227,-9.133,-0.691,0.000,0.000,0.000,-222689
7.738296084,1105496610,3.227,-9.133,-0.691,0.000,0.000,0.000,-222202
7.742717542,1105501831,3.305,-9.137,-0.691,0.000,0.000,0.000,-222380
7.745961042,1105505052,3.305,-9.137,-0.691,0.000,0.000,0.000,-221820
7.752279792,1105511273,3.305,-9.137,-0.691,0.000,0.000,0.000,-222472
7.756527542,1105515494,3.305,-9.137,-0.691,0.000,0.000,0.000,-222158
7.760908959,1105519715,3.305,-9.137,-0.691,0.000,0.000,0.000,-223159
7.766109125,1105524936,3.305,-9.137,-0.691,0.000,0.000,0.000,-222275
7.771695167,1105529157,3.305,-9.137,-0.691,0.000,0.000,0.000,-222210
7.773300375,1105532378,3.266,-9.176,-0.578,0.000,0.000,0.000,-222289
7.775541667,1105534599,3.266,-9.176,-0.578,0.000,0.000,0.000,-221921
7.780811125,1105539820,3.266,-9.176,-0.578,0.000,0.000,0.000,-222190
7.7850005,1105544041,3.266,-9.176,-0.578,0.000,0.000,0.000,-222522
7.7902435,1105549262,3.266,-9.176,-0.578,0.000,0.000,0.000,-222918
7.794457209,1105553483,3.266,-9.176,-0.578,0.000,0.000,0.000,-222223
7.802633375,1105561704,3.266,-9.176,-0.578,0.000,0.000,0.000,-223312
7.807885792,1105566925,3.266,-9.137,-0.691,0.000,0.000,0.000,-222832
7.811070125,1105570146,3.266,-9.137,-0.691,0.000,0.000,0.000,-222857
7.817359709,1105576367,3.266,-9.137,-0.691,0.000,0.000,0.000,-223428
7.821581792,1105580588,3.266,-9.137,-0.691,0.000,0.000,0.000,-221930
7.825048209,1105583809,3.266,-9.137,-0.691,0.000,0.000,0.000,-222260
7.8289805,1105588030,3.266,-9.137,-0.691,0.000,0.000,0.000,-222173
7.833265834,1105592251,3.266,-9.137,-0.691,0.000,0.000,0.000,-222367
7.838638959,1105597472,3.266,-9.098,-0.730,0.000,0.000,0.000,-222558
7.840644959,1105599693,3.266,-9.098,-0.730,0.000,0.000,0.000,-222497
7.845847625,1105604914,3.266,-9.098,-0.730,0.000,0.000,0.000,-223101
7.850161959,1105609135,3.266,-9.098,-0.730,0.000,0.000,0.000,-222087
7.855305167,1105614356,3.266,-9.098,-0.730,0.000,0.000,0.000,-222650
7.860457584,1105619577,3.266,-9.098,-0.730,0.000,0.000,0.000,-221707
7.865736,1105624798,3.266,-9.098,-0.730,0.000,0.000,0.000,-221833
7.870228917,1105629019,3.266,-9.133,-0.617,0.000,0.000,0.000,-221891
7.87315525,1105632240,3.266,-9.133,-0.617,0.000,0.000,0.000,-221880
7.879446417,1105638461,3.266,-9.133,-0.617,0.000,0.000,0.000,-222389
7.883676209,1105642682,3.266,-9.133,-0.617,0.000,0.000,0.000,-222570
7.887988167,1105646903,3.266,-9.133,-0.617,0.000,0.000,0.000,-222117
7.893416,1105652124,3.266,-9.133,-0.617,0.000,0.000,0.000,-221531
7.898560042,1105657330,3.266,-9.133,-0.617,0.000,0.000,0.000,-221531
7.904551209,1105662550,3.227,-9.137,-0.578,0.000,0.000,0.000,-223163
7.906655375,1105665771,3.227,-9.137,-0.578,0.000,0.000,0.000,-222415
7.911931,1105670992,3.227,-9.137,-0.578,0.000,0.000,0.000,-221749
7.916154417,1105675213,3.227,-9.137,-0.578,0.000,0.000,0.000,-221898
7.921380959,1105680434,3.227,-9.137,-0.578,0.000,0.000,0.000,-222292
7.925609459,1105684655,3.227,-9.137,-0.578,0.000,0.000,0.000,-221999
7.93108175,1105689876,3.227,-9.137,-0.578,0.000,0.000,0.000,-222741
7.935277667,1105694097,3.305,-9.098,-0.691,0.000,0.000,0.000,-222470
7.938258792,1105697318,3.305,-9.098,-0.691,0.000,0.000,0.000,-222433
7.944509292,1105703539,3.305,-9.098,-0.691,0.000,0.000,0.000,-222184
7.948719417,1105707760,3.305,-9.098,-0.691,0.000,0.000,0.000,-222276
7.953006209,1105711981,3.305,-9.098,-0.691,0.000,0.000,0.000,-222615
7.958374625,1105717202,3.305,-9.098,-0.691,0.000,0.000,0.000,-222068
7.962597792,1105721423,3.227,-9.098,-0.656,0.000,0.000,0.000,-222477
7.964833292,1105723644,3.227,-9.098,-0.656,0.000,0.000,0.000,-221848
7.969193625,1105727865,3.227,-9.098,-0.656,0.000,0.000,0.000,-222176
7.973006834,1105732086,3.227,-9.098,-0.656,0.000,0.000,0.000,-221863
7.978294417,1105737307,3.227,-9.098,-0.656,0.000,0.000,0.000,-221752
7.982463834,1105741528,3.227,-9.098,-0.656,0.000,0.000,0.000,-222624
7.9866885,1105745749,3.227,-9.098,-0.656,0.000,0.000,0.000,-222799
7.990975709,1105749970,3.266,-9.094,-0.617,0.000,0.000,0.000,-222216
7.993155625,1105752191,3.266,-9.094,-0.617,0.000,0.000,0.000,-222888
7.998438875,1105757412,3.266,-9.094,-0.617,0.000,0.000,0.000,-221337
8.002995,1105761633,3.266,-9.094,-0.617,0.000,0.000,0.000,-222594
8.005796792,1105764854,3.266,-9.094,-0.617,0.000,0.000,0.000,-222328
8.01096475,1105770075,3.266,-9.094,-0.617,0.000,0.000,0.000,-222279
8.016256084,1105775296,3.266,-9.094,-0.617,0.000,0.000,0.000,-222096
8.02045025,1105779517,3.266,-9.098,-0.730,0.000,0.000,0.000,-222205
8.022684167,1105781738,3.266,-9.098,-0.730,0.000,0.000,0.000,-222110
8.02793675,1105786959,3.266,-9.098,-0.730,0.000,0.000,0.000,-221840
8.032073542,1105791180,3.266,-9.098,-0.730,0.000,0.000,0.000,-222232
8.035315167,1105794401,3.266,-9.098,-0.730,0.000,0.000,0.000,-222281
8.040714834,1105799624,3.266,-9.098,-0.730,0.000,0.000,0.000,-221524
8.045791584,1105804845,3.266,-9.098,-0.730,0.000,0.000,0.000,-222525
8.052033625,1105811066,3.305,-9.094,-0.617,0.000,0.000,0.000,-223452
8.055228584,1105814287,3.305,-9.094,-0.617,0.000,0.000,0.000,-222778
8.060523292,1105819508,3.305,-9.094,-0.617,0.000,0.000,0.000,-222134
8.064748584,1105823729,3.305,-9.094,-0.617,0.000,0.000,0.000,-221804
8.070336917,1105827950,3.305,-9.094,-0.617,0.000,0.000,0.000,-222624
8.073060875,1105832171,3.305,-9.094,-0.617,0.000,0.000,0.000,-221872
8.078356084,1105837392,3.305,-9.094,-0.617,0.000,0.000,0.000,-222114
8.082585459,1105841613,3.227,-9.133,-0.730,0.000,0.000,0.000,-222025
8.085774667,1105844834,3.227,-9.133,-0.730,0.000,0.000,0.000,-221935
8.0913025,1105850055,3.227,-9.133,-0.730,0.000,0.000,0.000,-222918
8.096432167,1105855276,3.227,-9.133,-0.730,0.000,0.000,0.000,-222763
8.100671875,1105859497,3.227,-9.133,-0.730,0.000,0.000,0.000,-222335
8.104732917,1105863718,3.227,-9.133,-0.730,0.000,0.000,0.000,-222318
8.10883125,1105867939,3.227,-9.133,-0.730,0.000,0.000,0.000,-222379
8.114113792,1105873160,3.191,-9.137,-0.691,0.000,0.000,0.000,-222629
8.117269709,1105876381,3.191,-9.137,-0.691,0.000,0.000,0.000,-222376
8.123532792,1105882602,3.191,-9.137,-0.691,0.000,0.000,0.000,-221946
8.127740084,1105886823,3.191,-9.137,-0.691,0.000,0.000,0.000,-221977
8.130944042,1105890044,3.191,-9.137,-0.691,0.000,0.000,0.000,-222719
8.135127834,1105894265,3.191,-9.137,-0.691,0.000,0.000,0.000,-222085
8.140395042,1105899486,3.191,-9.137,-0.691,0.000,0.000,0.000,-221917
8.1436155,1105902707,3.227,-9.137,-0.656,0.000,0.000,0.000,-221961
8.147875667,1105906928,3.227,-9.137,-0.656,0.000,0.000,0.000,-222374
8.152066792,1105911149,3.227,-9.137,-0.656,0.000,0.000,0.000,-221656
8.155271292,1105914370,3.227,-9.137,-0.656,0.000,0.000,0.000,-222623
8.1605295,1105919591,3.227,-9.137,-0.656,0.000,0.000,0.000,-222414
8.1657685,1105924812,3.227,-9.137,-0.656,0.000,0.000,0.000,-222797
8.170979834,1105930033,3.266,-9.137,-0.691,0.000,0.000,0.000,-222338
8.174230417,1105933254,3.266,-9.137,-0.691,0.000,0.000,0.000,-222483
8.180440417,1105939475,3.266,-9.137,-0.691,0.000,0.000,0.000,-222384
8.184937792,1105943696,3.266,-9.137,-0.691,0.000,0.000,0.000,-222825
8.188905084,1105947917,3.266,-9.137,-0.691,0.000,0.000,0.000,-222431
8.193095125,1105952138,3.266,-9.137,-0.691,0.000,0.000,0.000,-222978
8.198317917,1105957359,3.266,-9.137,-0.691,0.000,0.000,0.000,-222929
8.202503542,1105961580,3.266,-9.133,-0.656,0.000,0.000,0.000,-221957
8.2057205,1105964801,3.266,-9.133,-0.656,0.000,0.000,0.000,-222580
8.211946625,1105971022,3.266,-9.133,-0.656,0.000,0.000,0.000,-222037
8.216196875,1105975245,3.266,-9.133,-0.656,0.000,0.000,0.000,-223144
8.220406125,1105979465,3.266,-9.133,-0.656,0.000,0.000,0.000,-222758
8.2246105,1105983686,3.266,-9.133,-0.656,0.000,0.000,0.000,-222439
8.228910167,1105987907,3.266,-9.133,-0.656,0.000,0.000,0.000,-222401
8.233047209,1105992128,3.227,-9.094,-0.691,0.000,0.000,0.000,-222991
8.236263709,1105995349,3.227,-9.094,-0.691,0.000,0.000,0.000,-222592
8.241599334,1106000570,3.227,-9.094,-0.691,0.000,0.000,0.000,-222848
8.245782542,1106004791,3.227,-9.094,-0.691,0.000,0.000,0.000,-222203
8.250003584,1106009012,3.227,-9.094,-0.691,0.000,0.000,0.000,-222392
8.254456959,1106013234,3.227,-9.094,-0.691,0.000,0.000,0.000,-222827
8.259439959,1106018454,3.227,-9.094,-0.691,0.000,0.000,0.000,-222542
8.263681375,1106022675,3.266,-9.137,-0.691,0.000,0.000,0.000,-222631
8.266807917,1106025896,3.266,-9.137,-0.691,0.000,0.000,0.000,-222858
8.272083125,1106031118,3.266,-9.137,-0.691,0.000,0.000,0.000,-223321
8.276325917,1106035339,3.266,-9.137,-0.691,0.000,0.000,0.000,-222159
8.281542792,1106040560,3.266,-9.137,-0.691,0.000,0.000,0.000,-222322
8.285722375,1106044781,3.266,-9.137,-0.691,0.000,0.000,0.000,-222574
8.289983584,1106049002,3.266,-9.137,-0.691,0.000,0.000,0.000,-222422
8.2941565,1106053223,3.305,-9.094,-0.617,0.000,0.000,0.000,-222236
8.2963885,1106055445,3.305,-9.094,-0.617,0.000,0.000,0.000,-222098
8.303079334,1106061666,3.305,-9.094,-0.617,0.000,0.000,0.000,-222652
8.306789792,1106065887,3.305,-9.094,-0.617,0.000,0.000,0.000,-221956
8.311084834,1106070108,3.305,-9.094,-0.617,0.000,0.000,0.000,-222144
8.316287542,1106075329,3.305,-9.094,-0.617,0.000,0.000,0.000,-222675
8.320537584,1106079550,3.305,-9.094,-0.617,0.000,0.000,0.000,-222893
8.324784625,1106083771,3.227,-9.133,-0.730,0.000,0.000,0.000,-222537
8.32705025,1106085992,3.227,-9.133,-0.730,0.000,0.000,0.000,-221765
8.331376042,1106090213,3.227,-9.133,-0.730,0.000,0.000,0.000,-221311
8.335814709,1106094434,3.227,-9.133,-0.730,0.000,0.000,0.000,-222195
8.340598834,1106099655,3.227,-9.133,-0.730,0.000,0.000,0.000,-222526
8.344807334,1106103876,3.227,-9.133,-0.730,0.000,0.000,0.000,-222372
8.349093584,1106108097,3.227,-9.133,-0.730,0.000,0.000,0.000,-222184
8.354391292,1106113318,3.266,-9.133,-0.656,0.000,0.000,0.000,-221663
8.357729417,1106116539,3.266,-9.133,-0.656,0.000,0.000,0.000,-222093
8.363929709,1106122760,3.266,-9.133,-0.656,0.000,0.000,0.000,-223331
8.369022167,1106126981,3.266,-9.133,-0.656,0.000,0.000,0.000,-222241
8.371167292,1106130202,3.266,-9.133,-0.656,0.000,0.000,0.000,-222141
8.375335875,1106134423,3.266,-9.133,-0.656,0.000,0.000,0.000,-222145
8.379592667,1106138644,3.266,-9.133,-0.656,0.000,0.000,0.000,-222793
8.3838755,1106142865,3.266,-9.176,-0.656,0.000,0.000,0.000,-221433
8.386060084,1106145086,3.266,-9.176,-0.656,0.000,0.000,0.000,-222308
8.391520042,1106150307,3.266,-9.176,-0.656,0.000,0.000,0.000,-221959
8.395735,1106154528,3.266,-9.176,-0.656,0.000,0.000,0.000,-221801
8.399949667,1106158749,3.266,-9.176,-0.656,0.000,0.000,0.000,-222169
8.404707167,1106162970,3.266,-9.176,-0.656,0.000,0.000,0.000,-222357
8.409100292,1106168191,3.266,-9.176,-0.656,0.000,0.000,0.000,-221713
8.413314959,1106172412,3.227,-9.094,-0.730,0.000,0.000,0.000,-222133
8.4168985,1106175633,3.227,-9.094,-0.730,0.000,0.000,0.000,-222213
8.422771917,1106181854,3.227,-9.094,-0.730,0.000,0.000,0.000,-222499
8.427048917,1106186075,3.227,-9.094,-0.730,0.000,0.000,0.000,-221848
8.430175667,1106189296,3.227,-9.094,-0.730,0.000,0.000,0.000,-223070
8.434414834,1106193517,3.227,-9.094,-0.730,0.000,0.000,0.000,-222336
8.438660917,1106197738,3.227,-9.094,-0.730,0.000,0.000,0.000,-221679
8.442915584,1106201959,3.266,-9.133,-0.617,0.000,0.000,0.000,-222238
8.4461135,1106205180,3.266,-9.133,-0.617,0.000,0.000,0.000,-222900
8.451546292,1106210401,3.266,-9.133,-0.617,0.000,0.000,0.000,-222813
8.455636209,1106214622,3.266,-9.133,-0.617,0.000,0.000,0.000,-222937
8.4609005,1106219843,3.266,-9.133,-0.617,0.000,0.000,0.000,-221988
8.46525725,1106224064,3.266,-9.133,-0.617,0.000,0.000,0.000,-222567
8.470676084,1106229285,3.266,-9.133,-0.617,0.000,0.000,0.000,-221953
8.474402334,1106233506,3.227,-9.059,-0.691,0.000,0.000,0.000,-222553
8.477681042,1106236727,3.227,-9.059,-0.691,0.000,0.000,0.000,-223069
8.483974084,1106242948,3.227,-9.059,-0.691,0.000,0.000,0.000,-222380
8.488201334,1106247169,3.227,-9.059,-0.691,0.000,0.000,0.000,-222856
8.491477084,1106250390,3.227,-9.059,-0.691,0.000,0.000,0.000,-222307
8.495841375,1106254611,3.227,-9.059,-0.691,0.000,0.000,0.000,-222625
8.499831042,1106258832,3.227,-9.059,-0.691,0.000,0.000,0.000,-222450
8.503112625,1106262053,3.266,-9.137,-0.730,0.000,0.000,0.000,-223013
8.505148,1106264274,3.266,-9.137,-0.730,0.000,0.000,0.000,-222803
8.509711375,1106268495,3.266,-9.137,-0.730,0.000,0.000,0.000,-222726
8.513684084,1106272717,3.266,-9.137,-0.730,0.000,0.000,0.000,-222278
8.518903667,1106277937,3.266,-9.137,-0.730,0.000,0.000,0.000,-222446
8.523138084,1106282158,3.266,-9.137,-0.730,0.000,0.000,0.000,-222619
8.527442875,1106286379,3.266,-9.137,-0.730,0.000,0.000,0.000,-222316
8.531268417,1106289600,3.266,-9.133,-0.656,0.000,0.000,0.000,-222224
8.533380542,1106291821,3.266,-9.133,-0.656,0.000,0.000,0.000,-222190
8.539320792,1106298042,3.266,-9.133,-0.656,0.000,0.000,0.000,-223501
8.543177667,1106302263,3.266,-9.133,-0.656,0.000,0.000,0.000,-222106
8.548448459,1106307484,3.266,-9.133,-0.656,0.000,0.000,0.000,-222026
8.552652625,1106311705,3.266,-9.133,-0.656,0.000,0.000,0.000,-221688
8.557900292,1106316926,3.266,-9.133,-0.656,0.000,0.000,0.000,-222779
8.562188875,1106321147,3.266,-9.137,-0.730,0.000,0.000,0.000,-221958
8.564554792,1106323368,3.266,-9.137,-0.730,0.000,0.000,0.000,-222066
8.569944542,1106327589,3.266,-9.137,-0.730,0.000,0.000,0.000,-222915
8.573010167,1106331810,3.266,-9.137,-0.730,0.000,0.000,0.000,-222635
8.578072,1106337031,3.266,-9.137,-0.730,0.000,0.000,0.000,-222442
8.582258417,1106341252,3.266,-9.137,-0.730,0.000,0.000,0.000,-223139
8.58662925,1106345473,3.266,-9.137,-0.730,0.000,0.000,0.000,-222782
8.591947084,1106350694,3.266,-9.133,-0.656,0.000,0.000,0.000,-221834
8.594120917,1106352915,3.266,-9.133,-0.656,0.000,0.000,0.000,-221683
8.599302584,1106358136,3.266,-9.133,-0.656,0.000,0.000,0.000,-222826
8.603668167,1106362357,3.266,-9.133,-0.656,0.000,0.000,0.000,-222676
8.606536209,1106365578,3.266,-9.133,-0.656,0.000,0.000,0.000,-222249
8.611712042,1106370799,3.266,-9.133,-0.656,0.000,0.000,0.000,-221273
8.615915709,1106375020,3.266,-9.133,-0.656,0.000,0.000,0.000,-222633
8.621198542,1106380241,3.266,-9.098,-0.730,0.000,0.000,0.000,-222541
8.623432084,1106382462,3.266,-9.098,-0.730,0.000,0.000,0.000,-222429
8.628658459,1106387683,3.266,-9.098,-0.730,0.000,0.000,0.000,-222402
8.632846167,1106391904,3.266,-9.098,-0.730,0.000,0.000,0.000,-223151
8.638146667,1106397125,3.266,-9.098,-0.730,0.000,0.000,0.000,-222117
8.642311792,1106401346,3.266,-9.176,-0.656,0.000,0.000,0.000,-222389
8.645542084,1106404567,3.266,-9.176,-0.656,0.000,0.000,0.000,-222692
8.650751584,1106409788,3.266,-9.176,-0.656,0.000,0.000,0.000,-223031
8.655036084,1106414009,3.266,-9.176,-0.656,0.000,0.000,0.000,-222692
8.659159167,1106418230,3.266,-9.176,-0.656,0.000,0.000,0.000,-222525
8.663357292,1106422451,3.266,-9.176,-0.656,0.000,0.000,0.000,-222069
8.666583125,1106425672,3.266,-9.176,-0.656,0.000,0.000,0.000,-222454
8.671024709,1106429893,3.305,-9.137,-0.691,0.000,0.000,0.000,-222962
8.674036292,1106433114,3.305,-9.137,-0.691,0.000,0.000,0.000,-222107
8.680234709,1106439336,3.305,-9.137,-0.691,0.000,0.000,0.000,-222282
8.684518584,1106443557,3.305,-9.137,-0.691,0.000,0.000,0.000,-222059
8.6887735,1106447778,3.305,-9.137,-0.691,0.000,0.000,0.000,-222274
8.694063375,1106452999,3.305,-9.137,-0.691,0.000,0.000,0.000,-222541
8.699386167,1106458220,3.305,-9.137,-0.691,0.000,0.000,0.000,-221933
8.704785375,1106462442,3.266,-9.133,-0.656,0.000,0.000,0.000,-222070
8.705865709,1106464663,3.266,-9.133,-0.656,0.000,0.000,0.000,-222664
8.710877459,1106469884,3.266,-9.133,-0.656,0.000,0.000,0.000,-222267
8.715080834,1106474105,3.266,-9.133,-0.656,0.000,0.000,0.000,-222087
8.721389,1106480326,3.266,-9.133,-0.656,0.000,0.000,0.000,-222244
8.72570875,1106484547,3.266,-9.133,-0.656,0.000,0.000,0.000,-223179
8.730103542,1106488768,3.266,-9.133,-0.656,0.000,0.000,0.000,-221470
8.734261667,1106492989,3.266,-9.133,-0.617,0.000,0.000,0.000,-222449
8.738238834,1106496210,3.266,-9.133,-0.617,0.000,0.000,0.000,-222667
8.743394042,1106502431,3.266,-9.133,-0.617,0.000,0.000,0.000,-222063
8.748674375,1106507652,3.266,-9.133,-0.617,0.000,0.000,0.000,-222877
8.75292075,1106511873,3.266,-9.133,-0.617,0.000,0.000,0.000,-221719
8.758291542,1106517094,3.266,-9.133,-0.617,0.000,0.000,0.000,-222069
8.76247325,1106521315,3.266,-9.133,-0.617,0.000,0.000,0.000,-221899
8.766478667,1106525536,3.266,-9.137,-0.730,0.000,0.000,0.000,-222658
8.768622834,1106527757,3.266,-9.137,-0.730,0.000,0.000,0.000,-222814
8.772945625,1106531978,3.266,-9.137,-0.730,0.000,0.000,0.000,-221601
8.777158,1106536199,3.266,-9.137,-0.730,0.000,0.000,0.000,-222130
8.78136325,1106540420,3.266,-9.137,-0.730,0.000,0.000,0.000,-222455
8.787026042,1106545641,3.266,-9.137,-0.730,0.000,0.000,0.000,-222964
8.790820292,1106549862,3.266,-9.137,-0.730,0.000,0.000,0.000,-221956
8.794056292,1106553083,3.305,-9.176,-0.656,0.000,0.000,0.000,-221887
8.796254875,1106555304,3.305,-9.176,-0.656,0.000,0.000,0.000,-221416
8.801460875,1106560525,3.305,-9.176,-0.656,0.000,0.000,0.000,-221649
8.80585575,1106564746,3.305,-9.176,-0.656,0.000,0.000,0.000,-222324
8.811924,1106570967,3.305,-9.176,-0.656,0.000,0.000,0.000,-222802
8.816150167,1106575188,3.305,-9.176,-0.656,0.000,0.000,0.000,-221931
8.821352625,1106580409,3.305,-9.176,-0.656,0.000,0.000,0.000,-222425
8.825594459,1106584630,3.266,-9.133,-0.617,0.000,0.000,0.000,-222570
8.828814959,1106587851,3.266,-9.133,-0.617,0.000,0.000,0.000,-222261
8.834056792,1106593072,3.266,-9.133,-0.617,0.000,0.000,0.000,-222365
8.839349959,1106598293,3.266,-9.133,-0.617,0.000,0.000,0.000,-222314
8.843514042,1106602514,3.266,-9.133,-0.617,0.000,0.000,0.000,-223446
8.848713959,1106607735,3.266,-9.133,-0.617,0.000,0.000,0.000,-221641
8.854296667,1106612956,3.266,-9.133,-0.617,0.000,0.000,0.000,-222065
8.859156084,1106618177,3.305,-9.172,-0.730,0.000,0.000,0.000,-222148
8.861389792,1106620399,3.305,-9.172,-0.730,0.000,0.000,0.000,-222159
8.866602209,1106625619,3.305,-9.172,-0.730,0.000,0.000,0.000,-222658
8.870911,1106629840,3.305,-9.172,-0.730,0.000,0.000,0.000,-222332
8.87504625,1106634061,3.305,-9.172,-0.730,0.000,0.000,0.000,-222613
8.879247709,1106638282,3.305,-9.172,-0.730,0.000,0.000,0.000,-222008
8.883483959,1106642503,3.305,-9.172,-0.730,0.000,0.000,0.000,-221778
8.886703875,1106645724,3.305,-9.133,-0.656,0.000,0.000,0.000,-222212
8.888935834,1106647945,3.305,-9.133,-0.656,0.000,0.000,0.000,-221976
8.894217542,1106653166,3.305,-9.133,-0.656,0.000,0.000,0.000,-221953
8.898548834,1106657387,3.305,-9.133,-0.656,0.000,0.000,0.000,-221807
8.904603625,1106661608,3.305,-9.133,-0.656,0.000,0.000,0.000,-222474
8.907130459,1106665829,3.305,-9.133,-0.656,0.000,0.000,0.000,-222704
8.911048917,1106670050,3.305,-9.133,-0.656,0.000,0.000,0.000,-222761
8.915225625,1106674271,3.266,-9.133,-0.656,0.000,0.000,0.000,-222197
8.918452125,1106677492,3.266,-9.133,-0.656,0.000,0.000,0.000,-222500
8.924760292,1106683713,3.266,-9.133,-0.656,0.000,0.000,0.000,-222310
8.929190209,1106687934,3.266,-9.133,-0.656,0.000,0.000,0.000,-221825
8.9323105,1106691155,3.266,-9.133,-0.656,0.000,0.000,0.000,-222640
8.937526042,1106695376,3.266,-9.133,-0.656,0.000,0.000,0.000,-222526
8.941497667,1106700597,3.266,-9.133,-0.656,0.000,0.000,0.000,-222037
8.945790542,1106704818,3.227,-9.094,-0.730,0.000,0.000,0.000,-222264
8.949049417,1106708039,3.227,-9.094,-0.730,0.000,0.000,0.000,-222607
8.954335834,1106713260,3.227,-9.094,-0.730,0.000,0.000,0.000,-222220
8.959503875,1106718481,3.227,-9.094,-0.730,0.000,0.000,0.000,-222605
8.963880417,1106722687,3.227,-9.094,-0.730,0.000,0.000,0.000,-222605
8.9694265,1106727907,3.227,-9.094,-0.730,0.000,0.000,0.000,-222399
8.973137417,1106732128,3.227,-9.094,-0.730,0.000,0.000,0.000,-222391
8.977320375,1106736349,3.266,-9.098,-0.691,0.000,0.000,0.000,-221614
8.97952825,1106738570,3.266,-9.098,-0.691,0.000,0.000,0.000,-222266
8.984791875,1106743791,3.266,-9.098,-0.691,0.000,0.000,0.000,-222335
8.989088542,1106748012,3.266,-9.098,-0.691,0.000,0.000,0.000,-222821
8.993477709,1106752235,3.266,-9.098,-0.691,0.000,0.000,0.000,-222058
8.998641542,1106757455,3.266,-9.098,-0.691,0.000,0.000,0.000,-222787
9.003967542,1106762676,3.266,-9.098,-0.691,0.000,0.000,0.000,-221997
9.007825709,1106766897,3.266,-9.133,-0.656,0.000,0.000,0.000,-222331
9.010053459,1106769118,3.266,-9.133,-0.656,0.000,0.000,0.000,-222027
9.014305375,1106773339,3.266,-9.133,-0.656,0.000,0.000,0.000,-222084
9.018509959,1106777560,3.266,-9.133,-0.656,0.000,0.000,0.000,-222609
9.022755917,1106781781,3.266,-9.133,-0.656,0.000,0.000,0.000,-222162
9.026951,1106786002,3.266,-9.133,-0.656,0.000,0.000,0.000,-222887
9.031261,1106790223,3.266,-9.133,-0.656,0.000,0.000,0.000,-221900
9.034363,1106793444,3.227,-9.094,-0.730,0.000,0.000,0.000,-223022
9.03762575,1106796665,3.227,-9.094,-0.730,0.000,0.000,0.000,-222019
9.044172084,1106802886,3.227,-9.094,-0.730,0.000,0.000,0.000,-222424
9.048079125,1106807107,3.227,-9.094,-0.730,0.000,0.000,0.000,-222077
9.052294625,1106811328,3.227,-9.094,-0.730,0.000,0.000,0.000,-221894
9.057529834,1106816549,3.227,-9.094,-0.730,0.000,0.000,0.000,-222656
9.064771875,1106823770,3.227,-9.094,-0.730,0.000,0.000,0.000,-222625
9.069744334,1106827991,3.227,-9.098,-0.656,0.000,0.000,0.000,-222553
9.071133875,1106830212,3.227,-9.098,-0.656,0.000,0.000,0.000,-222488
9.075394,1106834434,3.227,-9.098,-0.656,0.000,0.000,0.000,-221864
9.079619,1106838655,3.227,-9.098,-0.656,0.000,0.000,0.000,-222859
9.083846459,1106842876,3.227,-9.098,-0.656,0.000,0.000,0.000,-222036
9.089091125,1106848097,3.227,-9.098,-0.656,0.000,0.000,0.000,-222142
9.093367375,1106852318,3.227,-9.098,-0.656,0.000,0.000,0.000,-221930
9.098718584,1106857539,3.266,-9.098,-0.691,0.000,0.000,0.000,-222247
9.100715167,1106859760,3.266,-9.098,-0.691,0.000,0.000,0.000,-222995
9.106897292,1106865981,3.266,-9.098,-0.691,0.000,0.000,0.000,-222551
9.111157459,1106870202,3.266,-9.098,-0.691,0.000,0.000,0.000,-221937
9.115399625,1106874423,3.266,-9.098,-0.691,0.000,0.000,0.000,-221409
9.120667209,1106879644,3.266,-9.098,-0.691,0.000,0.000,0.000,-222230
9.1251565,1106883865,3.266,-9.098,-0.691,0.000,0.000,0.000,-222942
9.129159584,1106888071,3.266,-9.137,-0.691,0.000,0.000,0.000,-222942
9.132459,1106891291,3.266,-9.137,-0.691,0.000,0.000,0.000,-222432
9.138726875,1106897512,3.266,-9.137,-0.691,0.000,0.000,0.000,-222798
9.1427125,1106901733,3.266,-9.137,-0.691,0.000,0.000,0.000,-222430
9.146875,1106905954,3.266,-9.137,-0.691,0.000,0.000,0.000,-222570
9.151122084,1106910175,3.266,-9.137,-0.691,0.000,0.000,0.000,-222053
9.154395834,1106913396,3.266,-9.137,-0.691,0.000,0.000,0.000,-222079
9.159832917,1106918617,3.227,-9.094,-0.691,0.000,0.000,0.000,-222103
9.161742,1106920838,3.227,-9.094,-0.691,0.000,0.000,0.000,-222531
9.165948625,1106925059,3.227,-9.094,-0.691,0.000,0.000,0.000,-222309
9.170241584,1106929280,3.227,-9.094,-0.691,0.000,0.000,0.000,-223108
9.17430825,1106933501,3.227,-9.094,-0.691,0.000,0.000,0.000,-222346
9.179683667,1106938722,3.227,-9.094,-0.691,0.000,0.000,0.000,-222174
9.183841834,1106942943,3.227,-9.094,-0.691,0.000,0.000,0.000,-222190
9.188065584,1106947164,3.266,-9.137,-0.691,0.000,0.000,0.000,-222745
9.190321167,1106949385,3.266,-9.137,-0.691,0.000,0.000,0.000,-222339
9.1949185,1106953606,3.266,-9.137,-0.691,0.000,0.000,0.000,-221717
9.199750709,1106958827,3.266,-9.137,-0.691,0.000,0.000,0.000,-221872
9.203013542,1106962048,3.266,-9.137,-0.691,0.000,0.000,0.000,-223250
9.207173209,1106966270,3.266,-9.137,-0.691,0.000,0.000,0.000,-222463
9.211389417,1106970493,3.266,-9.137,-0.691,0.000,0.000,0.000,-222288
9.215619709,1106974714,3.266,-9.133,-0.656,0.000,0.000,0.000,-222247
9.218853375,1106977935,3.266,-9.133,-0.656,0.000,0.000,0.000,-221769
9.225051042,1106984156,3.266,-9.133,-0.656,0.000,0.000,0.000,-222914
9.229640584,1106988377,3.266,-9.133,-0.656,0.000,0.000,0.000,-222545
9.233537375,1106992598,3.266,-9.133,-0.656,0.000,0.000,0.000,-222229
9.238748334,1106997819,3.266,-9.133,-0.656,0.000,0.000,0.000,-222195
9.243006625,1107002040,3.266,-9.133,-0.656,0.000,0.000,0.000,-222179
9.247171709,1107006261,3.266,-9.137,-0.691,0.000,0.000,0.000,-222533
9.250441917,1107009482,3.266,-9.137,-0.691,0.000,0.000,0.000,-221421
9.254652167,1107013703,3.266,-9.137,-0.691,0.000,0.000,0.000,-222319
9.259869709,1107018924,3.266,-9.137,-0.691,0.000,0.000,0.000,-222458
9.264405167,1107023145,3.266,-9.137,-0.691,0.000,0.000,0.000,-223033
9.268313459,1107027366,3.266,-9.137,-0.691,0.000,0.000,0.000,-222386
9.272520334,1107031587,3.266,-9.137,-0.691,0.000,0.000,0.000,-221725
9.276708042,1107035808,3.266,-9.137,-0.691,0.000,0.000,0.000,-222322
9.278931709,1107038029,3.266,-9.137,-0.691,0.000,0.000,0.000,-221821
9.284186042,1107043250,3.266,-9.137,-0.691,0.000,0.000,0.000,-222536
9.288401,1107047471,3.266,-9.137,-0.691,0.000,0.000,0.000,-222337
9.291594375,1107050692,3.266,-9.137,-0.691,0.000,0.000,0.000,-221894
9.295881125,1107054913,3.266,-9.137,-0.691,0.000,0.000,0.000,-222428
9.300080917,1107059134,3.266,-9.137,-0.691,0.000,0.000,0.000,-223232
9.304373125,1107063355,3.266,-9.094,-0.656,0.000,0.000,0.000,-222463
9.306592709,1107065576,3.266,-9.094,-0.656,0.000,0.000,0.000,-222444
9.313778042,1107072797,3.266,-9.094,-0.656,0.000,0.000,0.000,-222545
9.31901475,1107078018,3.266,-9.094,-0.656,0.000,0.000,0.000,-222463
9.324205542,1107083239,3.266,-9.094,-0.656,0.000,0.000,0.000,-221874
9.329464042,1107088460,3.266,-9.094,-0.656,0.000,0.000,0.000,-222635
9.334032667,1107092681,3.266,-9.094,-0.656,0.000,0.000,0.000,-221738
9.338854209,1107097902,3.266,-9.094,-0.770,0.000,0.000,0.000,-222828
9.341175959,1107100123,3.266,-9.094,-0.770,0.000,0.000,0.000,-222088
9.345425167,1107104344,3.266,-9.094,-0.770,0.000,0.000,0.000,-223276
9.349568792,1107108565,3.266,-9.094,-0.770,0.000,0.000,0.000,-221503
9.353756209,1107112786,3.266,-9.094,-0.770,0.000,0.000,0.000,-222254
9.359132167,1107118007,3.266,-9.094,-0.770,0.000,0.000,0.000,-222210
9.363412,1107122229,3.266,-9.094,-0.770,0.000,0.000,0.000,-221896
9.366639292,1107125450,3.305,-9.094,-0.617,0.000,0.000,0.000,-222964
9.369977209,1107128671,3.305,-9.094,-0.617,0.000,0.000,0.000,-222366
9.3748145,1107133892,3.305,-9.094,-0.617,0.000,0.000,0.000,-222210
9.381271334,1107140113,3.305,-9.094,-0.617,0.000,0.000,0.000,-222259
9.385288334,1107144334,3.305,-9.094,-0.617,0.000,0.000,0.000,-222595
9.390829417,1107149555,3.305,-9.094,-0.617,0.000,0.000,0.000,-222406
9.394963667,1107153776,3.305,-9.094,-0.617,0.000,0.000,0.000,-222616
9.40019075,1107158997,3.266,-9.098,-0.730,0.000,0.000,0.000,-222393
9.402212209,1107161218,3.266,-9.098,-0.730,0.000,0.000,0.000,-222301
9.406380542,1107165439,3.266,-9.098,-0.730,0.000,0.000,0.000,-222491
9.410653584,1107169660,3.266,-9.098,-0.730,0.000,0.000,0.000,-222921
9.413814625,1107172881,3.266,-9.098,-0.730,0.000,0.000,0.000,-221846
9.419074709,1107178102,3.266,-9.098,-0.730,0.000,0.000,0.000,-222477
9.422269334,1107181323,3.266,-9.137,-0.730,0.000,0.000,0.000,-223023
9.426490334,1107185544,3.266,-9.137,-0.730,0.000,0.000,0.000,-221883
9.430716709,1107189766,3.266,-9.137,-0.730,0.000,0.000,0.000,-222112
9.435021375,1107193987,3.266,-9.137,-0.730,0.000,0.000,0.000,-221900
9.440249334,1107199208,3.266,-9.137,-0.730,0.000,0.000,0.000,-222204
9.444387709,1107203430,3.266,-9.137,-0.730,0.000,0.000,0.000,-222375
9.447600709,1107206651,3.266,-9.098,-0.691,0.000,0.000,0.000,-222005
9.449975,1107208872,3.266,-9.098,-0.691,0.000,0.000,0.000,-222098
9.455084542,1107214093,3.266,-9.098,-0.691,0.000,0.000,0.000,-221479
9.459230709,1107218314,3.266,-9.098,-0.691,0.000,0.000,0.000,-222164
9.463480667,1107222535,3.266,-9.098,-0.691,0.000,0.000,0.000,-221923
9.468698125,1107227756,3.266,-9.098,-0.691,0.000,0.000,0.000,-222321
9.473891542,1107232977,3.266,-9.098,-0.691,0.000,0.000,0.000,-222014
9.479146,1107238198,3.266,-9.094,-0.770,0.000,0.000,0.000,-222718
9.482355042,1107241419,3.266,-9.094,-0.770,0.000,0.000,0.000,-222616
9.488613542,1107247640,3.266,-9.094,-0.770,0.000,0.000,0.000,-222008
9.493004542,1107251861,3.266,-9.094,-0.770,0.000,0.000,0.000,-221498
9.496138375,1107255082,3.266,-9.094,-0.770,0.000,0.000,0.000,-222720
9.501490167,1107260303,3.266,-9.094,-0.770,0.000,0.000,0.000,-222351
9.504742709,1107263524,3.266,-9.094,-0.770,0.000,0.000,0.000,-222244
9.50865025,1107267745,3.227,-9.137,-0.656,0.000,0.000,0.000,-222822
9.510905417,1107269966,3.227,-9.137,-0.656,0.000,0.000,0.000,-222255
9.516191084,1107275187,3.227,-9.137,-0.656,0.000,0.000,0.000,-221838
9.521405584,1107280408,3.227,-9.137,-0.656,0.000,0.000,0.000,-222557
9.525676084,1107284629,3.227,-9.137,-0.656,0.000,0.000,0.000,-221847
9.5301765,1107288850,3.227,-9.137,-0.656,0.000,0.000,0.000,-222085
9.534257292,1107293071,3.227,-9.137,-0.656,0.000,0.000,0.000,-221943
9.5391975,1107298292,3.266,-9.137,-0.691,0.000,0.000,0.000,-222583
9.54139675,1107300513,3.266,-9.137,-0.691,0.000,0.000,0.000,-222398
9.546669459,1107305734,3.266,-9.137,-0.691,0.000,0.000,0.000,-222495
9.550980542,1107309955,3.266,-9.137,-0.691,0.000,0.000,0.000,-222530
9.555251292,1107314176,3.266,-9.137,-0.691,0.000,0.000,0.000,-221716
9.561313125,1107320397,3.266,-9.137,-0.691,0.000,0.000,0.000,-221719
9.565834709,1107324618,3.266,-9.137,-0.691,0.000,0.000,0.000,-222469
9.569759709,1107328839,3.227,-9.172,-0.617,0.000,0.000,0.000,-222132
9.572988709,1107332060,3.227,-9.172,-0.617,0.000,0.000,0.000,-222572
9.579289209,1107338281,3.227,-9.172,-0.617,0.000,0.000,0.000,-222287
9.583502792,1107342502,3.227,-9.172,-0.617,0.000,0.000,0.000,-223034
9.58770675,1107346723,3.227,-9.172,-0.617,0.000,0.000,0.000,-222347
9.593148584,1107351944,3.227,-9.172,-0.617,0.000,0.000,0.000,-221950
9.597395084,1107356165,3.227,-9.172,-0.617,0.000,0.000,0.000,-222382
9.603428917,1107361389,3.266,-9.133,-0.656,0.000,0.000,0.000,-222370
9.604580209,1107363609,3.266,-9.133,-0.656,0.000,0.000,0.000,-222453
9.608789,1107367830,3.266,-9.133,-0.656,0.000,0.000,0.000,-221924
9.613007292,1107372051,3.266,-9.133,-0.656,0.000,0.000,0.000,-222800
9.616227125,1107375272,3.266,-9.133,-0.656,0.000,0.000,0.000,-222884
9.621465792,1107380493,3.266,-9.133,-0.656,0.000,0.000,0.000,-222936
9.625679834,1107384714,3.266,-9.133,-0.656,0.000,0.000,0.000,-222187
9.630074917,1107388935,3.266,-9.137,-0.730,0.000,0.000,0.000,-221687
9.632102584,1107391156,3.266,-9.137,-0.730,0.000,0.000,0.000,-222258
9.639073334,1107397377,3.266,-9.137,-0.730,0.000,0.000,0.000,-223221
9.642585792,1107401598,3.266,-9.137,-0.730,0.000,0.000,0.000,-222714
9.646804667,1107405819,3.266,-9.137,-0.730,0.000,0.000,0.000,-221685
9.651041042,1107410040,3.266,-9.137,-0.730,0.000,0.000,0.000,-221917
9.656301084,1107415261,3.266,-9.137,-0.730,0.000,0.000,0.000,-222319
9.660403792,1107419482,3.227,-9.098,-0.617,0.000,0.000,0.000,-222298
9.662662375,1107421703,3.227,-9.098,-0.617,0.000,0.000,0.000,-222408
9.666853167,1107425924,3.227,-9.098,-0.617,0.000,0.000,0.000,-222289
9.671137459,1107430145,3.305,-9.133,-0.656,0.000,0.000,0.000,-222714
9.673380292,1107432366,3.305,-9.133,-0.656,0.000,0.000,0.000,-222293
9.677526084,1107436587,3.305,-9.133,-0.656,0.000,0.000,0.000,-222462
9.681805584,1107440808,3.305,-9.133,-0.656,0.000,0.000,0.000,-223050
9.68601375,1107445029,3.305,-9.133,-0.656,0.000,0.000,0.000,-222035
9.6914395,1107450250,3.305,-9.133,-0.656,0.000,0.000,0.000,-222507
9.696722667,1107455471,3.305,-9.133,-0.656,0.000,0.000,0.000,-222439
9.701911667,1107460692,3.344,-9.098,-0.656,0.000,0.000,0.000,-222417
