pc_time_s,teensy_time_us,ax,ay,az,gx,gy,gz,load_raw
2.230480909347534,95831574,3.383,-9.059,-0.691,0.000,0.000,0.000,-222101
2.232806921005249,95833881,3.383,-9.098,-0.656,0.000,0.000,0.000,-221916
2.239029884338379,95840120,3.383,-9.098,-0.656,0.000,0.000,0.000,-222599
2.241182804107666,95842340,3.383,-9.098,-0.656,0.002,0.000,0.004,-223085
2.247546911239624,95848561,3.383,-9.098,-0.656,-0.004,0.000,-0.004,-223313
2.253819704055786,95854782,3.344,-9.094,-0.730,-0.004,0.000,-0.004,-221792
2.2578649520874023,95859003,3.344,-9.094,-0.730,0.002,0.000,0.000,-222275
2.263671875,95864224,3.344,-9.094,-0.730,0.002,0.000,0.000,-221677
2.268609046936035,95869445,3.344,-9.094,-0.730,0.002,0.002,0.004,-222322
2.2755887508392334,95876666,3.344,-9.137,-0.809,0.002,0.002,0.004,-223497
2.278822898864746,95879887,3.344,-9.137,-0.809,0.002,-0.002,-0.004,-222986
2.2850921154022217,95886109,3.344,-9.137,-0.809,-0.002,0.000,-0.002,-222680
2.2912769317626953,95892330,3.344,-9.098,-0.770,-0.002,0.000,-0.002,-223126
2.296700954437256,95897551,3.344,-9.098,-0.770,-0.004,0.000,-0.002,-222535
2.302949905395508,95903772,3.344,-9.137,-0.770,-0.004,0.000,-0.002,-222425
2.306870937347412,95907993,3.344,-9.137,-0.770,0.002,-0.002,0.000,-222923
2.3131229877471924,95914214,3.305,-9.137,-0.730,0.002,-0.002,0.000,-222041
2.3183510303497314,95919435,3.305,-9.137,-0.730,0.004,0.000,0.004,-222926
2.3245160579681396,95925656,3.305,-9.137,-0.730,0.002,-0.002,0.000,-223356
2.330035924911499,95930877,3.344,-9.098,-0.809,0.002,-0.002,0.000,-222672
2.3342509269714355,95935098,3.344,-9.098,-0.809,-0.002,0.000,-0.004,-222879
2.3401567935943604,95941319,3.344,-9.098,-0.770,-0.002,0.000,-0.004,-222937
2.3450679779052734,95945540,3.344,-9.098,-0.770,0.000,-0.002,-0.002,-221692
2.349785089492798,95950761,3.344,-9.094,-0.730,0.000,-0.002,-0.002,-222732
2.354865789413452,95955982,3.344,-9.094,-0.730,0.000,0.000,0.004,-221913
2.3601129055023193,95961203,3.383,-9.094,-0.730,0.000,0.000,0.004,-222818
2.365525960922241,95966424,3.383,-9.094,-0.730,0.004,-0.002,0.000,-222614
2.3724708557128906,95973645,3.383,-9.059,-0.730,0.004,-0.002,0.000,-222970
2.376729965209961,95977866,3.383,-9.059,-0.730,0.002,0.000,-0.002,-222797
2.382412910461426,95983087,3.344,-9.137,-0.770,0.002,0.000,-0.002,-222387
2.387212038040161,95988308,3.344,-9.137,-0.770,0.004,0.002,-0.004,-222643
2.3955368995666504,95996529,3.344,-9.094,-0.691,0.004,0.002,-0.004,-222956
2.398620843887329,95999750,3.344,-9.094,-0.691,-0.002,0.000,-0.002,-222189
2.403942823410034,96004971,3.383,-9.133,-0.730,-0.002,0.000,-0.002,-222194
2.4081368446350098,96009192,3.383,-9.133,-0.730,0.002,0.000,-0.002,-222416
2.414659023284912,96015413,3.305,-9.055,-0.730,0.002,0.000,-0.002,-222030
2.4184839725494385,96019634,3.305,-9.055,-0.730,0.002,0.000,0.006,-221997
2.423834800720215,96024855,3.344,-9.098,-0.770,0.002,0.000,0.006,-222988
2.4289658069610596,96030076,3.344,-9.098,-0.770,0.002,-0.002,0.000,-223156
2.436123847961426,96037297,3.344,-9.098,-0.770,-0.004,0.000,-0.002,-222074
2.4403529167175293,96041518,3.383,-9.133,-0.691,-0.004,0.000,-0.002,-223004
2.4466187953948975,96047739,3.383,-9.133,-0.691,0.002,-0.002,-0.004,-221754
2.451875925064087,96052960,3.383,-9.133,-0.691,0.002,-0.002,-0.004,-221536
2.456019878387451,96057181,3.383,-9.133,-0.691,0.006,0.000,0.000,-222431
2.461271047592163,96062402,3.344,-9.094,-0.730,0.006,0.000,0.000,-223126
2.466493844985962,96067623,3.344,-9.094,-0.730,0.004,0.002,0.002,-221448
2.471771717071533,96072844,3.383,-9.098,-0.809,0.004,0.002,0.002,-222227
2.476080894470215,96077065,3.383,-9.098,-0.809,0.002,0.000,-0.002,-223164
2.481431007385254,96082286,3.344,-9.094,-0.691,0.002,0.000,-0.002,-222383
2.486334800720215,96087507,3.344,-9.094,-0.691,-0.002,-0.002,-0.002,-222126
2.493853807449341,96094728,3.383,-9.133,-0.730,-0.002,-0.002,-0.002,-223023
2.4990549087524414,96099949,3.383,-9.133,-0.730,0.002,0.000,-0.002,-222806
2.5049948692321777,96106170,3.344,-9.055,-0.770,0.002,0.000,-0.002,-222752
2.5083048343658447,96109391,3.344,-9.055,-0.770,0.002,0.000,0.002,-223142
2.5156009197235107,96116612,3.344,-9.055,-0.770,0.004,0.000,0.004,-222276
2.520681858062744,96121833,3.383,-9.098,-0.770,0.004,0.000,0.004,-223056
2.5261480808258057,96127054,3.383,-9.098,-0.770,0.000,0.000,0.000,-223325
2.5311059951782227,96132275,3.383,-9.098,-0.770,0.000,0.000,0.000,-222275
2.53629994392395,96137496,3.383,-9.098,-0.770,-0.002,0.000,-0.002,-222342
2.5427088737487793,96143717,3.344,-9.137,-0.770,-0.002,0.000,-0.002,-222445
2.546844959259033,96147938,3.344,-9.137,-0.770,-0.004,0.000,-0.002,-222723
2.5540809631347656,96155159,3.344,-9.094,-0.691,-0.004,0.000,-0.002,-222469
2.5582399368286133,96159380,3.344,-9.094,-0.691,-0.002,0.004,-0.004,-223227
2.5635669231414795,96164601,3.305,-9.098,-0.730,-0.002,0.004,-0.004,-221587
2.5678179264068604,96168822,3.305,-9.098,-0.730,-0.002,-0.002,-0.002,-222528
2.574321746826172,96175043,3.344,-9.094,-0.730,-0.002,-0.002,-0.002,-223576
2.5783767700195312,96179264,3.344,-9.094,-0.730,0.004,0.000,0.000,-222218
2.5825698375701904,96183485,3.344,-9.133,-0.730,0.004,0.000,0.000,-222454
2.5875749588012695,96188706,3.344,-9.133,-0.730,0.004,-0.002,0.002,-222186
2.5917959213256836,96192927,3.344,-9.133,-0.691,0.004,-0.002,0.002,-222930
2.5981838703155518,96199148,3.344,-9.133,-0.691,-0.002,-0.002,-0.002,-222001
2.604360818862915,96205369,3.344,-9.133,-0.730,-0.002,-0.002,-0.002,-221395
2.6094717979431152,96210590,3.344,-9.133,-0.730,0.000,0.000,0.002,-222075
2.6186609268188477,96219811,3.344,-9.133,-0.730,0.004,0.002,0.000,-222071
2.6238367557525635,96225032,3.344,-9.055,-0.770,0.004,0.002,0.000,-222889
2.629039764404297,96230253,3.344,-9.055,-0.770,0.002,0.000,-0.002,-222641
2.636375904083252,96237474,3.344,-9.133,-0.730,0.002,0.000,-0.002,-222260
2.6414408683776855,96242695,3.344,-9.133,-0.730,0.002,0.000,0.000,-222671
2.647599697113037,96248916,3.383,-9.137,-0.656,0.002,0.000,0.000,-222732
2.6508679389953613,96252137,3.383,-9.137,-0.656,-0.002,-0.002,-0.002,-221933
2.6581790447235107,96259358,3.344,-9.094,-0.730,-0.002,-0.002,-0.002,-223379
2.6632938385009766,96264579,3.344,-9.094,-0.730,0.006,-0.002,-0.002,-222091
2.6698179244995117,96270800,3.344,-9.094,-0.730,0.002,-0.002,0.002,-222686
2.6757359504699707,96277021,3.305,-9.094,-0.770,0.002,-0.002,0.002,-223146
2.680039882659912,96281242,3.305,-9.094,-0.770,-0.002,-0.002,0.002,-222741
2.685241937637329,96286463,3.383,-9.098,-0.617,-0.002,-0.002,0.002,-222336
2.689459800720215,96290684,3.383,-9.098,-0.617,0.000,0.000,-0.006,-222329
2.6967458724975586,96297905,3.383,-9.094,-0.691,0.000,0.000,-0.006,-222260
2.701908826828003,96303126,3.383,-9.094,-0.691,-0.002,-0.002,-0.004,-222281
2.7071197032928467,96308347,3.344,-9.059,-0.730,-0.002,-0.002,-0.004,-222959
2.7113640308380127,96312568,3.344,-9.059,-0.730,0.004,-0.002,0.000,-223255
2.719567060470581,96320789,3.344,-9.059,-0.730,0.002,0.000,0.004,-222346
2.723823070526123,96325012,3.344,-9.098,-0.809,0.002,0.000,0.004,-222912
2.7290239334106445,96330233,3.344,-9.098,-0.809,-0.002,0.002,0.000,-222613
2.7342567443847656,96335454,3.344,-9.137,-0.656,-0.002,0.002,0.000,-222547
2.73941707611084,96340675,3.344,-9.137,-0.656,-0.004,-0.002,-0.006,-222268
2.7457828521728516,96346898,3.344,-9.098,-0.656,-0.004,-0.002,-0.006,-222881
2.749911069869995,96351118,3.344,-9.098,-0.656,0.004,0.000,0.000,-222407
2.756147861480713,96357339,3.305,-9.098,-0.691,0.004,0.000,0.000,-222884
2.760378837585449,96361560,3.305,-9.098,-0.691,0.002,-0.002,0.004,-222985
2.765707015991211,96366781,3.344,-9.055,-0.770,0.002,-0.002,0.004,-221903
2.7708258628845215,96372002,3.344,-9.055,-0.770,0.002,0.000,0.000,-222063
2.779087781906128,96380223,3.344,-9.055,-0.770,0.000,-0.002,-0.002,-222386
2.782280921936035,96383444,3.344,-9.094,-0.730,0.000,-0.002,-0.002,-222385
2.7864837646484375,96387665,3.383,-9.133,-0.691,0.000,-0.002,-0.002,-222790
2.791724920272827,96392887,3.383,-9.133,-0.691,-0.002,-0.002,-0.004,-223310
2.7979440689086914,96399108,3.383,-9.133,-0.691,0.002,0.000,0.000,-222887
2.803179979324341,96404329,3.383,-9.094,-0.691,0.002,0.000,0.000,-222984
2.8083879947662354,96409550,3.383,-9.094,-0.691,0.004,0.004,0.004,-222835
2.813796043395996,96414771,3.344,-9.094,-0.691,0.004,0.004,0.004,-223029
2.8198020458221436,96420992,3.344,-9.094,-0.691,0.004,0.002,0.000,-221844
2.827091932296753,96428213,3.344,-9.098,-0.770,0.004,0.002,0.000,-222469
2.832566022872925,96433434,3.344,-9.098,-0.770,0.002,0.000,0.002,-222251
2.839500904083252,96440655,3.344,-9.098,-0.770,0.002,-0.004,-0.002,-222738
2.8458449840545654,96446876,3.344,-9.059,-0.730,0.002,-0.004,-0.002,-222427
2.8509507179260254,96452098,3.344,-9.059,-0.730,0.002,-0.002,0.000,-221764
2.8582026958465576,96459319,3.344,-9.059,-0.730,0.002,-0.002,0.000,-222424
2.8624110221862793,96463540,3.344,-9.059,-0.730,0.002,-0.002,0.002,-222815
2.8677148818969727,96468761,3.344,-9.137,-0.770,0.002,-0.002,0.002,-221804
2.8719468116760254,96472982,3.344,-9.137,-0.770,0.002,-0.002,-0.002,-222575
2.8792319297790527,96480203,3.344,-9.137,-0.770,-0.004,0.000,-0.004,-223228
2.8833179473876953,96484424,3.383,-9.094,-0.730,-0.004,0.000,-0.004,-221921
2.889523983001709,96490645,3.383,-9.094,-0.730,0.002,0.000,-0.002,-222313
2.8959779739379883,96496866,3.344,-9.059,-0.691,0.002,0.000,-0.002,-222431
2.9012279510498047,96502087,3.344,-9.059,-0.691,0.000,0.000,-0.004,-223145
2.9082858562469482,96509308,3.344,-9.094,-0.730,0.000,0.000,-0.004,-223435
2.911770820617676,96512529,3.344,-9.094,-0.730,0.002,0.000,0.000,-222880
2.918623924255371,96519750,3.344,-9.094,-0.730,0.002,-0.002,0.000,-221789
2.9228200912475586,96523971,3.344,-9.094,-0.730,0.002,-0.002,0.000,-222428
2.9292190074920654,96530192,3.344,-9.094,-0.730,0.000,0.000,0.000,-222722
2.9342379570007324,96535413,3.344,-9.133,-0.691,0.000,0.000,0.000,-222142
2.939487934112549,96540634,3.344,-9.133,-0.691,0.000,-0.002,-0.002,-222550
2.9460887908935547,96546855,3.305,-9.098,-0.691,0.000,-0.002,-0.002,-222353
2.9499518871307373,96551076,3.305,-9.098,-0.691,-0.002,-0.002,-0.002,-221453
2.957284927368164,96558297,3.266,-9.098,-0.730,-0.002,-0.002,-0.002,-222497
2.961500883102417,96562518,3.266,-9.098,-0.730,-0.002,-0.002,-0.002,-222626
2.967700958251953,96568739,3.344,-9.098,-0.770,-0.002,-0.002,-0.002,-222346
2.972965717315674,96573960,3.344,-9.098,-0.770,0.004,0.000,0.000,-222692
2.980372905731201,96581181,3.344,-9.098,-0.770,0.002,0.000,0.000,-223395
2.983654737472534,96584402,3.344,-9.059,-0.691,0.002,0.000,0.000,-221805
2.9885199069976807,96589623,3.344,-9.059,-0.691,-0.002,-0.002,-0.004,-223494
2.9927690029144287,96593844,3.344,-9.059,-0.691,-0.002,-0.002,-0.004,-223130
2.998979091644287,96600065,3.344,-9.059,-0.691,0.002,-0.002,-0.002,-222583
3.005398988723755,96606286,3.305,-9.098,-0.691,0.002,-0.002,-0.002,-222286
3.0104708671569824,96611507,3.305,-9.098,-0.691,0.004,0.002,0.002,-222323
3.016997814178467,96617713,3.344,-9.098,-0.770,0.004,0.002,0.002,-222323
3.0217669010162354,96622933,3.344,-9.098,-0.770,0.004,-0.002,0.002,-222456
3.0290307998657227,96630154,3.383,-9.133,-0.730,0.004,-0.002,0.002,-221969
3.0342447757720947,96635375,3.383,-9.133,-0.730,-0.002,0.000,-0.002,-222987
3.040548086166382,96641596,3.383,-9.133,-0.730,-0.002,-0.002,-0.004,-222792
3.045675039291382,96646817,3.383,-9.137,-0.656,-0.002,-0.002,-0.004,-223065
3.05002498626709,96651038,3.383,-9.137,-0.656,0.002,0.000,0.002,-222992
3.0561110973358154,96657259,3.344,-9.098,-0.770,0.002,0.000,0.002,-222174
3.0603578090667725,96661480,3.344,-9.098,-0.770,0.010,0.000,0.006,-222329
3.0655789375305176,96666701,3.305,-9.098,-0.691,0.010,0.000,0.006,-222113
3.070793867111206,96671922,3.305,-9.098,-0.691,0.002,-0.002,0.000,-222338
3.0781171321868896,96679143,3.383,-9.098,-0.656,0.002,-0.002,0.000,-222059
3.0833139419555664,96684364,3.383,-9.098,-0.656,-0.002,0.000,-0.004,-222441
3.0894761085510254,96690585,3.383,-9.098,-0.656,-0.002,0.000,-0.004,-222125
3.092628002166748,96693806,3.383,-9.098,-0.656,0.000,0.000,-0.004,-223084
3.1000900268554688,96701027,3.383,-9.098,-0.656,0.004,-0.002,-0.002,-222314
3.105355978012085,96706248,3.383,-9.137,-0.770,0.004,-0.002,-0.002,-222412
3.1103527545928955,96711469,3.383,-9.137,-0.770,0.008,-0.002,0.002,-222981
3.1165459156036377,96717690,3.344,-9.098,-0.770,0.008,-0.002,0.002,-222226
3.1227219104766846,96723911,3.344,-9.098,-0.770,0.004,0.000,0.000,-222843
3.130948066711426,96732132,3.344,-9.137,-0.656,0.004,0.000,0.000,-222316
3.13411283493042,96735353,3.344,-9.137,-0.656,-0.004,-0.002,-0.002,-221741
3.140347719192505,96741574,3.344,-9.137,-0.656,0.000,0.000,-0.002,-222928
3.146528959274292,96747795,3.344,-9.133,-0.730,0.000,0.000,-0.002,-222424
3.150743007659912,96752016,3.344,-9.133,-0.730,0.002,0.000,0.002,-221846
3.157956838607788,96759237,3.383,-9.133,-0.730,0.002,0.000,0.002,-223108
3.163174867630005,96764458,3.383,-9.133,-0.730,0.002,0.000,0.000,-222595
3.1683788299560547,96769679,3.305,-9.020,-0.809,0.002,0.000,0.000,-222098
3.1736948490142822,96774900,3.305,-9.020,-0.809,-0.002,0.000,0.002,-223201
3.1809258460998535,96782121,3.305,-9.020,-0.809,-0.002,-0.002,0.000,-222546
3.1861307621002197,96787342,3.344,-9.098,-0.617,-0.002,-0.002,0.000,-221638
3.1913137435913086,96792563,3.344,-9.098,-0.617,-0.002,-0.002,0.000,-222075
3.1996006965637207,96800784,3.344,-9.098,-0.617,0.002,-0.002,0.000,-222115
3.2038047313690186,96805005,3.344,-9.059,-0.730,0.002,-0.002,0.000,-222500
3.2079899311065674,96809226,3.344,-9.059,-0.730,0.002,-0.002,0.000,-223104
3.212157964706421,96813447,3.344,-9.059,-0.730,0.004,-0.002,0.002,-222062
3.2184157371520996,96819668,3.383,-9.098,-0.770,0.004,-0.002,0.002,-222400
3.2237329483032227,96824890,3.383,-9.098,-0.770,0.002,0.000,-0.002,-222112
3.230933904647827,96832110,3.305,-9.098,-0.730,0.002,0.000,-0.002,-222490
3.234130859375,96835331,3.305,-9.098,-0.730,-0.004,-0.002,-0.004,-221613
3.241302967071533,96842553,3.305,-9.098,-0.730,0.000,-0.002,0.000,-223672
3.246609926223755,96847775,3.344,-9.098,-0.770,0.000,-0.002,0.000,-221980
3.251755952835083,96852995,3.344,-9.098,-0.770,0.010,-0.004,0.006,-222581
3.258042812347412,96859216,3.305,-9.098,-0.730,0.010,-0.004,0.006,-222590
3.262281894683838,96863437,3.305,-9.098,-0.730,0.002,-0.002,0.000,-222169
3.2674758434295654,96868658,3.344,-9.133,-0.730,0.002,-0.002,0.000,-221747
3.272697925567627,96873881,3.344,-9.133,-0.730,0.000,0.000,0.000,-222432
3.279921770095825,96881101,3.344,-9.094,-0.730,0.000,0.000,0.000,-222472
3.284118890762329,96885322,3.344,-9.094,-0.730,0.000,0.000,0.000,-221899
3.289355993270874,96890544,3.344,-9.094,-0.730,0.000,0.000,0.000,-223092
3.294532060623169,96895765,3.344,-9.094,-0.730,0.000,0.000,0.000,-222565
3.30179500579834,96902986,3.344,-9.094,-0.730,0.000,0.000,0.000,-222310
3.306074857711792,96907207,3.383,-9.094,-0.730,0.000,0.000,0.000,-222714
3.311241865158081,96912428,3.383,-9.094,-0.730,0.000,0.000,0.000,-222839
3.315500020980835,96916649,3.383,-9.098,-0.770,0.000,0.000,0.000,-222181
3.321742057800293,96922870,3.383,-9.098,-0.770,0.000,0.000,0.000,-222191
3.3249640464782715,96926092,3.383,-9.094,-0.691,0.000,0.000,0.000,-223721
3.3291919231414795,96930313,3.383,-9.137,-0.656,0.000,0.000,0.000,-222021
3.3334269523620605,96934536,3.383,-9.137,-0.656,0.000,0.000,0.000,-222076
3.3396449089050293,96940757,3.344,-9.137,-0.656,0.000,0.000,0.000,-222176
3.3438568115234375,96944978,3.344,-9.137,-0.656,0.000,0.000,0.000,-222833
3.3491759300231934,96950199,3.305,-9.094,-0.770,0.000,0.000,0.000,-222144
3.3542797565460205,96955420,3.305,-9.094,-0.770,0.000,0.000,0.000,-223004
3.361509084701538,96962641,3.305,-9.059,-0.809,0.000,0.000,0.000,-222296
3.3658008575439453,96966862,3.305,-9.059,-0.809,0.000,0.000,0.000,-221965
3.3709497451782227,96972083,3.383,-9.098,-0.770,0.000,0.000,0.000,-223489
3.375170946121216,96976304,3.383,-9.098,-0.770,0.000,0.000,0.000,-223828
3.3814477920532227,96982525,3.344,-9.094,-0.691,0.000,0.000,0.000,-222208
3.3855929374694824,96986746,3.344,-9.094,-0.691,0.000,0.000,0.000,-222626
3.3908588886260986,96991967,3.383,-9.098,-0.656,0.000,0.000,0.000,-222828
3.3961219787597656,96997188,3.383,-9.098,-0.656,0.000,0.000,0.000,-222779
3.404540777206421,97005409,3.383,-9.098,-0.656,0.000,0.000,0.000,-222311
3.4087460041046143,97009630,3.344,-9.098,-0.770,0.000,0.000,0.000,-223131
3.4140048027038574,97014851,3.344,-9.098,-0.770,0.000,0.000,0.000,-223356
3.419935941696167,97021072,3.344,-9.176,-0.730,0.000,0.000,0.000,-222239
3.4251058101654053,97026293,3.344,-9.176,-0.730,0.000,0.000,0.000,-223104
3.4303829669952393,97031514,3.344,-9.094,-0.691,0.000,0.000,0.000,-222126
3.4345948696136475,97035735,3.344,-9.094,-0.691,0.000,0.000,0.000,-222141
3.440825939178467,97041956,3.305,-9.098,-0.730,0.000,0.000,0.000,-222842
3.445013999938965,97046178,3.305,-9.098,-0.730,0.000,0.000,0.000,-223129
3.4502549171447754,97051399,3.305,-9.098,-0.730,0.000,0.000,0.000,-222186
3.4554879665374756,97056620,3.305,-9.098,-0.730,0.000,0.000,0.000,-223079
3.461672782897949,97062841,3.305,-9.133,-0.770,0.000,0.000,0.000,-222961
3.466935873031616,97068062,3.305,-9.133,-0.770,0.000,0.000,0.000,-222521
3.479184865951538,97080283,3.305,-9.137,-0.730,0.000,0.000,0.000,-222797
3.4827797412872314,97083504,3.305,-9.137,-0.730,0.000,0.000,0.000,-222173
3.4885458946228027,97089725,3.305,-9.137,-0.730,0.000,0.000,0.000,-223192
3.4939517974853516,97094946,3.305,-9.137,-0.730,0.000,0.000,0.000,-223067
3.4981627464294434,97099167,3.344,-9.059,-0.730,0.000,0.000,0.000,-222239
3.5034799575805664,97104388,3.344,-9.059,-0.730,0.000,0.000,0.000,-222880
3.5107109546661377,97111609,3.344,-9.094,-0.730,0.000,0.000,0.000,-223294
3.5168728828430176,97116830,3.344,-9.094,-0.730,0.000,0.000,0.000,-221793
3.524034023284912,97125051,3.344,-9.094,-0.730,0.000,0.000,0.000,-223174
3.52712082862854,97128272,3.344,-9.094,-0.730,0.000,0.000,0.000,-222580
3.5344858169555664,97135493,3.344,-9.094,-0.730,0.000,0.000,0.000,-222719
3.541818141937256,97142714,3.344,-9.133,-0.691,0.000,0.000,0.000,-223100
3.5460400581359863,97146935,3.344,-9.133,-0.691,0.000,0.000,0.000,-222684
3.5514988899230957,97151156,3.383,-9.094,-0.691,0.000,0.000,0.000,-222124
3.554180860519409,97155377,3.383,-9.094,-0.691,0.000,0.000,0.000,-221383
3.5604729652404785,97161598,3.305,-9.098,-0.730,0.000,0.000,0.000,-222576
3.564697027206421,97165819,3.305,-9.098,-0.730,0.000,0.000,0.000,-222194
3.5689330101013184,97170040,3.383,-9.059,-0.691,0.000,0.000,0.000,-221445
3.573219060897827,97174261,3.383,-9.059,-0.691,0.000,0.000,0.000,-222843
3.5785739421844482,97179482,3.305,-9.094,-0.656,0.000,0.000,0.000,-222639
3.583951711654663,97184703,3.305,-9.094,-0.656,0.000,0.000,0.000,-221660
3.588735818862915,97189924,3.305,-9.094,-0.656,0.000,0.000,0.000,-223123
3.5930259227752686,97194145,3.305,-9.094,-0.656,0.000,0.000,0.000,-223136
3.5985047817230225,97199366,3.344,-9.094,-0.730,0.000,0.000,0.000,-222005
3.6037068367004395,97204587,3.344,-9.094,-0.730,0.000,0.000,0.000,-222479
3.6102027893066406,97210808,3.344,-9.133,-0.730,0.000,0.000,0.000,-222387
3.6141209602355957,97215029,3.344,-9.133,-0.730,0.000,0.000,0.000,-222654
3.61877703666687,97219250,3.344,-9.098,-0.809,0.000,0.000,0.000,-222446
3.6232669353485107,97224456,3.344,-9.098,-0.809,0.000,0.000,0.000,-222446
3.6285088062286377,97229676,3.383,-9.133,-0.691,0.000,0.000,0.000,-222494
3.6337578296661377,97234897,3.383,-9.133,-0.691,0.000,0.000,0.000,-223019
3.638922929763794,97240118,3.305,-9.094,-0.656,0.000,0.000,0.000,-223043
3.644286870956421,97245339,3.305,-9.094,-0.656,0.000,0.000,0.000,-222983
3.651251792907715,97251560,3.344,-9.094,-0.730,0.000,0.000,0.000,-221872
3.6546199321746826,97255781,3.344,-9.094,-0.730,0.000,0.000,0.000,-223019
3.660881757736206,97262002,3.305,-9.098,-0.730,0.000,0.000,0.000,-223154
3.666160821914673,97267223,3.305,-9.098,-0.730,0.000,0.000,0.000,-222358
3.6713221073150635,97272444,3.383,-9.133,-0.730,0.000,0.000,0.000,-222785
3.675590753555298,97276665,3.383,-9.133,-0.730,0.000,0.000,0.000,-222698
3.6830408573150635,97282886,3.383,-9.098,-0.656,0.000,0.000,0.000,-221942
3.6859357357025146,97287107,3.383,-9.098,-0.656,0.000,0.000,0.000,-222053
3.6915769577026367,97292328,3.344,-9.059,-0.730,0.000,0.000,0.000,-223175
3.6964828968048096,97297549,3.344,-9.059,-0.730,0.000,0.000,0.000,-221254
3.702899932861328,97303770,3.344,-9.059,-0.730,0.000,0.000,0.000,-222322
3.708087921142578,97308991,3.305,-9.137,-0.730,0.000,0.000,0.000,-222641
3.7133209705352783,97314212,3.305,-9.137,-0.730,0.000,0.000,0.000,-222352
3.7172789573669434,97318433,3.344,-9.137,-0.770,0.000,0.000,0.000,-221809
3.7245419025421143,97325654,3.344,-9.137,-0.770,0.000,0.000,0.000,-222735
3.729811906814575,97330878,3.344,-9.098,-0.617,0.000,0.000,0.000,-222255
3.7350828647613525,97336099,3.344,-9.098,-0.617,0.000,0.000,0.000,-222462
3.7404348850250244,97341320,3.305,-9.098,-0.691,0.000,0.000,0.000,-222997
3.7466859817504883,97347541,3.305,-9.098,-0.691,0.000,0.000,0.000,-222720
3.7526729106903076,97353762,3.383,-9.098,-0.809,0.000,0.000,0.000,-222496
3.756856918334961,97357983,3.383,-9.098,-0.809,0.000,0.000,0.000,-222707
3.7641849517822266,97365204,3.383,-9.098,-0.809,0.000,0.000,0.000,-221166
3.768413782119751,97369425,3.344,-9.098,-0.656,0.000,0.000,0.000,-222206
3.7737510204315186,97374646,3.344,-9.098,-0.656,0.000,0.000,0.000,-222794
3.7779619693756104,97378868,3.344,-9.094,-0.691,0.000,0.000,0.000,-223098
3.7842607498168945,97384089,3.344,-9.098,-0.656,0.000,0.000,0.000,-222653
3.7871289253234863,97388310,3.344,-9.098,-0.656,0.000,0.000,0.000,-222635
3.792414903640747,97393531,3.383,-9.098,-0.770,0.000,0.000,0.000,-222746
3.797760009765625,97398752,3.383,-9.098,-0.770,0.000,0.000,0.000,-223131
3.803972005844116,97404973,3.305,-9.055,-0.730,0.000,0.000,0.000,-222513
3.8092877864837646,97410194,3.305,-9.055,-0.730,0.000,0.000,0.000,-222222
3.81551194190979,97416415,3.344,-9.133,-0.691,0.000,0.000,0.000,-222750
3.818687915802002,97419636,3.344,-9.133,-0.691,0.000,0.000,0.000,-222492
3.8247148990631104,97425857,3.344,-9.133,-0.691,0.000,0.000,0.000,-223071
3.8309590816497803,97432080,3.344,-9.133,-0.691,0.000,0.000,0.000,-222575
3.8362369537353516,97437300,3.344,-9.133,-0.691,0.000,0.000,0.000,-222726
3.8414011001586914,97442520,3.305,-9.094,-0.770,0.000,0.000,0.000,-222826
3.845602035522461,97446741,3.305,-9.094,-0.770,0.000,0.000,0.000,-222084
3.8508269786834717,97451962,3.305,-9.098,-0.730,0.000,0.000,0.000,-221763
3.8556089401245117,97456183,3.383,-9.094,-0.730,0.000,0.000,0.000,-222714
3.8602819442749023,97461404,3.383,-9.094,-0.730,0.000,0.000,0.000,-222231
3.866528034210205,97467625,3.383,-9.094,-0.730,0.000,0.000,0.000,-222347
3.8717498779296875,97472846,3.344,-9.098,-0.656,0.000,0.000,0.000,-222636
3.877351760864258,97478067,3.344,-9.098,-0.656,0.000,0.000,0.000,-222583
3.8825199604034424,97483288,3.383,-9.133,-0.730,0.000,0.000,0.000,-222370
3.8873720169067383,97488509,3.383,-9.133,-0.730,0.000,0.000,0.000,-222872
3.893659830093384,97494730,3.383,-9.133,-0.730,0.000,0.000,0.000,-222771
3.8989460468292236,97499951,3.383,-9.133,-0.730,0.000,0.000,0.000,-223293
3.9052698612213135,97506172,3.305,-9.098,-0.730,0.000,0.000,0.000,-222776
3.9094948768615723,97510393,3.305,-9.098,-0.730,0.000,0.000,0.000,-222783
3.914731025695801,97515614,3.344,-9.098,-0.656,0.000,0.000,0.000,-222769
3.9200377464294434,97520835,3.344,-9.098,-0.656,0.000,0.000,0.000,-223299
3.9269890785217285,97528056,3.344,-9.059,-0.691,0.000,0.000,0.000,-222372
3.9301259517669678,97531277,3.344,-9.059,-0.691,0.000,0.000,0.000,-221993
3.9374618530273438,97538498,3.344,-9.059,-0.691,0.000,0.000,0.000,-222645
3.944837808609009,97545719,3.305,-9.098,-0.730,0.000,0.000,0.000,-222825
3.950540065765381,97550940,3.305,-9.098,-0.730,0.000,0.000,0.000,-222427
3.955037832260132,97556161,3.344,-9.137,-0.656,0.000,0.000,0.000,-222113
3.9592580795288086,97560382,3.344,-9.137,-0.656,0.000,0.000,0.000,-222850
3.965527057647705,97566603,3.344,-9.094,-0.691,0.000,0.000,0.000,-222370
3.9706900119781494,97571824,3.344,-9.094,-0.691,0.000,0.000,0.000,-221435
3.978970766067505,97580045,3.344,-9.094,-0.691,0.000,0.000,0.000,-222013
3.9841840267181396,97585266,3.344,-9.133,-0.691,0.000,0.000,0.000,-222400
3.9883599281311035,97589487,3.344,-9.133,-0.691,0.000,0.000,0.000,-222137
3.9935569763183594,97594708,3.344,-9.059,-0.691,0.000,0.000,0.000,-222696
3.9988138675689697,97599929,3.344,-9.059,-0.691,0.000,0.000,0.000,-222308
4.006313800811768,97607150,3.344,-9.059,-0.691,0.000,0.000,0.000,-222228
4.010488986968994,97611371,3.344,-9.094,-0.730,0.000,0.000,0.000,-221599
4.014703750610352,97615592,3.344,-9.094,-0.730,0.000,0.000,0.000,-222047
4.019749879837036,97620813,3.344,-9.094,-0.730,0.000,0.000,0.000,-222243
4.026928901672363,97628034,3.305,-9.098,-0.691,0.000,0.000,0.000,-222695
4.030138731002808,97631255,3.305,-9.098,-0.691,0.000,0.000,0.000,-222539
4.036356687545776,97637476,3.305,-9.098,-0.691,0.000,0.000,0.000,-222495
4.040605783462524,97641697,3.344,-9.094,-0.730,0.000,0.000,0.000,-222504
4.04676079750061,97647918,3.344,-9.094,-0.730,0.000,0.000,0.000,-222492
4.053092956542969,97654139,3.344,-9.133,-0.730,0.000,0.000,0.000,-222326
4.058277130126953,97659359,3.344,-9.133,-0.730,0.000,0.000,0.000,-222326
4.06560206413269,97666580,3.344,-9.059,-0.730,0.000,0.000,0.000,-222096
4.069759845733643,97670801,3.344,-9.059,-0.730,0.000,0.000,0.000,-221901
4.073939800262451,97675022,3.383,-9.098,-0.617,0.000,0.000,0.000,-222836
4.078190088272095,97679243,3.383,-9.098,-0.617,0.000,0.000,0.000,-223355
4.083418130874634,97683464,3.344,-9.137,-0.617,0.000,0.000,0.000,-222695
4.087533950805664,97688685,3.344,-9.137,-0.617,0.000,0.000,0.000,-222490
4.092798948287964,97693906,3.344,-9.133,-0.730,0.000,0.000,0.000,-221945
4.098062038421631,97699127,3.344,-9.133,-0.730,0.000,0.000,0.000,-222590
4.103336811065674,97704348,3.344,-9.098,-0.770,0.000,0.000,0.000,-222303
4.109234809875488,97709569,3.344,-9.098,-0.770,0.000,0.000,0.000,-222377
4.11478590965271,97715790,3.344,-9.094,-0.691,0.000,0.000,0.000,-221560
4.119866847991943,97721011,3.344,-9.094,-0.691,0.000,0.000,0.000,-222192
4.1272900104522705,97728232,3.344,-9.098,-0.617,0.000,0.000,0.000,-223181
4.131253004074097,97732453,3.344,-9.098,-0.617,0.000,0.000,0.000,-222315
4.136518716812134,97737674,3.305,-9.098,-0.730,0.000,0.000,0.000,-221956
4.141716957092285,97742894,3.305,-9.098,-0.730,0.000,0.000,0.000,-222295
4.147977828979492,97749115,3.305,-9.098,-0.730,0.000,0.000,0.000,-222048
4.15314507484436,97754336,3.344,-9.055,-0.809,0.000,0.000,0.000,-222558
4.157433032989502,97758557,3.344,-9.055,-0.809,0.000,0.000,0.000,-223060
4.162684917449951,97763778,3.305,-9.098,-0.691,0.000,0.000,0.000,-222207
4.167889833450317,97768999,3.305,-9.098,-0.691,0.000,0.000,0.000,-221694
4.1741859912872314,97775220,3.305,-9.055,-0.730,0.000,0.000,0.000,-222437
4.178296089172363,97779441,3.305,-9.055,-0.730,0.000,0.000,0.000,-222817
4.183578729629517,97784662,3.344,-9.094,-0.691,0.000,0.000,0.000,-222003
4.188766956329346,97789883,3.344,-9.094,-0.691,0.000,0.000,0.000,-223447
4.193992853164673,97795104,3.344,-9.094,-0.730,0.000,0.000,0.000,-222794
4.198206901550293,97799325,3.344,-9.094,-0.730,0.000,0.000,0.000,-221915
4.20348596572876,97804546,3.383,-9.098,-0.809,0.000,0.000,0.000,-222380
4.2087647914886475,97809767,3.383,-9.098,-0.809,0.000,0.000,0.000,-222673
4.215102910995483,97815975,3.305,-9.137,-0.691,0.000,0.000,0.000,-222673
4.219054937362671,97820195,3.305,-9.137,-0.691,0.000,0.000,0.000,-222514
4.226311922073364,97827416,3.344,-9.094,-0.730,0.000,0.000,0.000,-223069
4.233567953109741,97834637,3.344,-9.094,-0.730,0.000,0.000,0.000,-222419
4.23876690864563,97839858,3.344,-9.094,-0.730,0.000,0.000,0.000,-223241
4.242965936660767,97844080,3.305,-9.094,-0.770,0.000,0.000,0.000,-223500
4.248218774795532,97849301,3.305,-9.094,-0.770,0.000,0.000,0.000,-222967
4.254418849945068,97855524,3.305,-9.098,-0.730,0.000,0.000,0.000,-221779
4.2596447467803955,97860745,3.305,-9.098,-0.730,0.000,0.000,0.000,-222385
4.2670578956604,97867966,3.344,-9.133,-0.691,0.000,0.000,0.000,-222613
4.272158861160278,97873187,3.344,-9.133,-0.691,0.000,0.000,0.000,-222998
4.278327941894531,97879408,3.344,-9.133,-0.691,0.000,0.000,0.000,-223174
4.28453803062439,97885629,3.344,-9.133,-0.691,0.000,0.000,0.000,-222826
4.289734840393066,97890850,3.344,-9.133,-0.691,0.000,0.000,0.000,-223628
4.295996904373169,97897073,3.344,-9.137,-0.770,0.000,0.000,0.000,-222641
4.300472974777222,97901294,3.344,-9.137,-0.770,0.000,0.000,0.000,-222356
4.307657957077026,97908515,3.344,-9.098,-0.770,0.000,0.000,0.000,-222496
4.3128581047058105,97913736,3.344,-9.098,-0.770,0.000,0.000,0.000,-222833
4.3188347816467285,97919957,3.344,-9.098,-0.770,0.000,0.000,0.000,-222545
4.324095964431763,97925178,3.344,-9.172,-0.656,0.000,0.000,0.000,-223205
4.328289031982422,97929399,3.344,-9.172,-0.656,0.000,0.000,0.000,-222733
4.333556890487671,97934620,3.305,-9.094,-0.656,0.000,0.000,0.000,-222341
4.338920831680298,97939841,3.305,-9.094,-0.656,0.000,0.000,0.000,-223216
4.3451738357543945,97946062,3.266,-9.094,-0.809,0.000,0.000,0.000,-222450
4.350476026535034,97950282,3.266,-9.094,-0.809,0.000,0.000,0.000,-221996
4.354359865188599,97955503,3.305,-9.098,-0.730,0.000,0.000,0.000,-222208
4.358575105667114,97959724,3.305,-9.098,-0.730,0.000,0.000,0.000,-222567
4.364809989929199,97965945,3.344,-9.133,-0.691,0.000,0.000,0.000,-222570
4.369039058685303,97970166,3.344,-9.133,-0.691,0.000,0.000,0.000,-222484
4.373264789581299,97974387,3.344,-9.133,-0.730,0.000,0.000,0.000,-222425
4.378473997116089,97979608,3.344,-9.133,-0.730,0.000,0.000,0.000,-223031
4.385711669921875,97986829,3.305,-9.172,-0.730,0.000,0.000,0.000,-223057
4.390923023223877,97992050,3.305,-9.172,-0.730,0.000,0.000,0.000,-222824
4.396307945251465,97997271,3.305,-9.137,-0.730,0.000,0.000,0.000,-222018
4.40044379234314,98001492,3.305,-9.137,-0.730,0.000,0.000,0.000,-221638
4.407583951950073,98008713,3.344,-9.094,-0.691,0.000,0.000,0.000,-222570
4.410951852798462,98011934,3.344,-9.094,-0.691,0.000,0.000,0.000,-222640
4.416064977645874,98017155,3.344,-9.098,-0.656,0.000,0.000,0.000,-222591
4.420296907424927,98021376,3.344,-9.098,-0.656,0.000,0.000,0.000,-222454
4.426491737365723,98027597,3.344,-9.133,-0.691,0.000,0.000,0.000,-222491
4.430669069290161,98031818,3.344,-9.133,-0.691,0.000,0.000,0.000,-221747
4.435962677001953,98037039,3.344,-9.137,-0.770,0.000,0.000,0.000,-222732
4.441143989562988,98042260,3.344,-9.137,-0.770,0.000,0.000,0.000,-222905
4.4483888149261475,98049481,3.344,-9.094,-0.730,0.000,0.000,0.000,-221640
4.451620101928711,98052702,3.344,-9.094,-0.730,0.000,0.000,0.000,-222321
4.456754922866821,98057923,3.344,-9.137,-0.656,0.000,0.000,0.000,-222512
4.461036920547485,98062144,3.344,-9.137,-0.656,0.000,0.000,0.000,-222758
4.467265844345093,98068365,3.344,-9.094,-0.691,0.000,0.000,0.000,-222673
4.471502065658569,98072586,3.344,-9.094,-0.691,0.000,0.000,0.000,-222396
4.4757468700408936,98076809,3.344,-9.094,-0.691,0.000,0.000,0.000,-222403
4.482209920883179,98083030,3.344,-9.094,-0.691,0.000,0.000,0.000,-221467
4.488126993179321,98089251,3.383,-9.055,-0.770,0.000,0.000,0.000,-223108
4.493338108062744,98094472,3.383,-9.055,-0.770,0.000,0.000,0.000,-223091
4.49959397315979,98100693,3.383,-9.098,-0.656,0.000,0.000,0.000,-221677
4.502830982208252,98103914,3.383,-9.098,-0.656,0.000,0.000,0.000,-221995
4.510262966156006,98111135,3.383,-9.098,-0.656,0.000,0.000,0.000,-222486
4.517453908920288,98117356,3.383,-9.094,-0.730,0.000,0.000,0.000,-221594
4.52046799659729,98121577,3.383,-9.094,-0.730,0.000,0.000,0.000,-222965
4.526736736297607,98127798,3.383,-9.094,-0.730,0.000,0.000,0.000,-222520
4.532027721405029,98133019,3.383,-9.094,-0.730,0.000,0.000,0.000,-222101
4.537348031997681,98138240,3.305,-9.098,-0.691,0.000,0.000,0.000,-222556
4.541582107543945,98142461,3.305,-9.098,-0.691,0.000,0.000,0.000,-223160
4.548789978027344,98149682,3.344,-9.094,-0.691,0.000,0.000,0.000,-222160
4.553783893585205,98154903,3.344,-9.094,-0.691,0.000,0.000,0.000,-222402
4.559010982513428,98160124,3.344,-9.094,-0.691,0.000,0.000,0.000,-222639
4.563246011734009,98164345,3.266,-9.137,-0.691,0.000,0.000,0.000,-222263
4.568563938140869,98169566,3.266,-9.137,-0.691,0.000,0.000,0.000,-222502
4.574903964996338,98175787,3.344,-9.094,-0.691,0.000,0.000,0.000,-223000
4.580199956893921,98181008,3.344,-9.094,-0.691,0.000,0.000,0.000,-222028
4.585234880447388,98186229,3.383,-9.133,-0.730,0.000,0.000,0.000,-221856
4.589310884475708,98190450,3.383,-9.133,-0.730,0.000,0.000,0.000,-222562
4.594578742980957,98195671,3.344,-9.094,-0.730,0.000,0.000,0.000,-222416
4.599919080734253,98200892,3.344,-9.094,-0.730,0.000,0.000,0.000,-221665
4.60521388053894,98206113,3.344,-9.094,-0.691,0.000,0.000,0.000,-223148
4.610439777374268,98211334,3.344,-9.094,-0.691,0.000,0.000,0.000,-222819
4.6166558265686035,98217555,3.383,-9.094,-0.691,0.000,0.000,0.000,-222530
4.621779918670654,98222776,3.383,-9.094,-0.691,0.000,0.000,0.000,-222535
4.628917932510376,98229997,3.344,-9.137,-0.656,0.000,0.000,0.000,-222447
4.634108781814575,98235218,3.344,-9.137,-0.656,0.000,0.000,0.000,-222464
4.63932204246521,98240439,3.344,-9.137,-0.656,0.000,0.000,0.000,-222806
4.64396595954895,98244660,3.344,-9.098,-0.770,0.000,0.000,0.000,-222733
4.648793935775757,98249881,3.344,-9.098,-0.770,0.000,0.000,0.000,-222269
4.6539788246154785,98255102,3.344,-9.094,-0.730,0.000,0.000,0.000,-221948
4.659189939498901,98260323,3.344,-9.094,-0.730,0.000,0.000,0.000,-222685
4.66444993019104,98265544,3.305,-9.094,-0.656,0.000,0.000,0.000,-222064
4.669871091842651,98270765,3.305,-9.094,-0.656,0.000,0.000,0.000,-223039
4.675961971282959,98276986,3.266,-9.098,-0.730,0.000,0.000,0.000,-222811
4.6811230182647705,98282207,3.266,-9.098,-0.730,0.000,0.000,0.000,-221680
4.6894309520721436,98290428,3.266,-9.098,-0.730,0.000,0.000,0.000,-222931
4.693541049957275,98294649,3.383,-9.094,-0.691,0.000,0.000,0.000,-224016
4.698778867721558,98299872,3.383,-9.094,-0.691,0.000,0.000,0.000,-222436
4.704042911529541,98305092,3.344,-9.094,-0.730,0.000,0.000,0.000,-221986
4.709450960159302,98310313,3.344,-9.094,-0.730,0.000,0.000,0.000,-222579
4.714645862579346,98315534,3.383,-9.094,-0.691,0.000,0.000,0.000,-222436
4.719637870788574,98320755,3.383,-9.094,-0.691,0.000,0.000,0.000,-222084
4.723880767822266,98324976,3.383,-9.059,-0.691,0.000,0.000,0.000,-223419
4.732207775115967,98333197,3.383,-9.059,-0.691,0.000,0.000,0.000,-222574
4.737558841705322,98338418,3.344,-9.055,-0.770,0.000,0.000,0.000,-222514
4.741744756698608,98342639,3.344,-9.055,-0.770,0.000,0.000,0.000,-222664
4.748188734054565,98348860,3.383,-9.133,-0.730,0.000,0.000,0.000,-222717
4.751899719238281,98353081,3.383,-9.133,-0.730,0.000,0.000,0.000,-221853
4.757116794586182,98358302,3.344,-9.176,-0.691,0.000,0.000,0.000,-223207
4.761402130126953,98362523,3.344,-9.176,-0.691,0.000,0.000,0.000,-222241
4.766661882400513,98367744,3.305,-9.176,-0.617,0.000,0.000,0.000,-221520
4.771148920059204,98371965,3.305,-9.176,-0.617,0.000,0.000,0.000,-222486
4.776285886764526,98377186,3.344,-9.094,-0.691,0.000,0.000,0.000,-223073
4.781651973724365,98382407,3.344,-9.094,-0.691,0.000,0.000,0.000,-221782
4.786478042602539,98387628,3.344,-9.098,-0.770,0.000,0.000,0.000,-222708
4.791735887527466,98392849,3.344,-9.098,-0.770,0.000,0.000,0.000,-223113
4.79902982711792,98400071,3.344,-9.055,-0.770,0.000,0.000,0.000,-222296
4.804421901702881,98405292,3.344,-9.055,-0.770,0.000,0.000,0.000,-222565
4.810626029968262,98411513,3.344,-9.055,-0.770,0.000,0.000,0.000,-222784
4.814863681793213,98415734,3.305,-9.137,-0.691,0.000,0.000,0.000,-222052
4.819879770278931,98420955,3.305,-9.137,-0.691,0.000,0.000,0.000,-222686
4.824049949645996,98425176,3.344,-9.098,-0.656,0.000,0.000,0.000,-222762
4.830286979675293,98431397,3.344,-9.098,-0.656,0.000,0.000,0.000,-222462
4.836501836776733,98437618,3.344,-9.094,-0.848,0.000,0.000,0.000,-222710
4.841728925704956,98442839,3.344,-9.094,-0.848,0.000,0.000,0.000,-223928
4.8507959842681885,98451060,3.383,-9.094,-0.730,0.000,0.000,0.000,-222586
4.853166103363037,98454281,3.383,-9.094,-0.730,0.000,0.000,0.000,-222740
4.858416795730591,98459502,3.305,-9.137,-0.730,0.000,0.000,0.000,-224324
4.862597703933716,98463723,3.305,-9.137,-0.730,0.000,0.000,0.000,-222543
4.869872808456421,98470944,3.344,-9.098,-0.656,0.000,0.000,0.000,-223021
4.873067855834961,98474165,3.344,-9.098,-0.656,0.000,0.000,0.000,-223428
4.8783369064331055,98479386,3.305,-9.055,-0.691,0.000,0.000,0.000,-222707
4.88275671005249,98483607,3.305,-9.055,-0.691,0.000,0.000,0.000,-221874
4.889699935913086,98490828,3.344,-9.094,-0.730,0.000,0.000,0.000,-223006
4.894970893859863,98496049,3.344,-9.094,-0.730,0.000,0.000,0.000,-222355
4.901202917098999,98502270,3.344,-9.098,-0.617,0.000,0.000,0.000,-222183
4.904460906982422,98505491,3.344,-9.098,-0.617,0.000,0.000,0.000,-222941
4.910861015319824,98511712,3.344,-9.098,-0.617,0.000,0.000,0.000,-222754
4.916839838027954,98517933,3.344,-9.133,-0.691,0.000,0.000,0.000,-222178
4.922132968902588,98523154,3.344,-9.133,-0.691,0.000,0.000,0.000,-222664
4.927280902862549,98528375,3.383,-9.133,-0.691,0.000,0.000,0.000,-222789
4.931475877761841,98532596,3.383,-9.133,-0.691,0.000,0.000,0.000,-222276
4.9366888999938965,98537817,3.344,-9.133,-0.730,0.000,0.000,0.000,-221977
4.940908908843994,98542038,3.344,-9.133,-0.730,0.000,0.000,0.000,-222178
4.946159839630127,98547259,3.305,-9.094,-0.770,0.000,0.000,0.000,-223257
4.952377080917358,98553480,3.305,-9.094,-0.770,0.000,0.000,0.000,-222333
4.95862603187561,98559701,3.344,-9.094,-0.691,0.000,0.000,0.000,-222624
4.963987827301025,98564922,3.344,-9.094,-0.691,0.000,0.000,0.000,-222428
4.9712607860565186,98572143,3.383,-9.094,-0.730,0.000,0.000,0.000,-222587
4.976488828659058,98577364,3.383,-9.094,-0.730,0.000,0.000,0.000,-223224
4.98379373550415,98584585,3.383,-9.094,-0.730,0.000,0.000,0.000,-222744
4.987706899642944,98588806,3.344,-9.055,-0.770,0.000,0.000,0.000,-222146
4.992923736572266,98594027,3.344,-9.055,-0.770,0.000,0.000,0.000,-223063
4.999236106872559,98600248,3.344,-9.094,-0.730,0.000,0.000,0.000,-222688
5.004621982574463,98605469,3.344,-9.094,-0.730,0.000,0.000,0.000,-221969
5.011790990829468,98612690,3.344,-9.094,-0.730,0.000,0.000,0.000,-222894
5.0160040855407715,98616911,3.383,-9.098,-0.656,0.000,0.000,0.000,-221721
5.021389007568359,98622132,3.383,-9.098,-0.656,0.000,0.000,0.000,-222764
5.026540040969849,98627353,3.344,-9.094,-0.691,0.000,0.000,0.000,-222553
5.031450033187866,98632574,3.344,-9.094,-0.691,0.000,0.000,0.000,-222607
5.03771185874939,98638795,3.344,-9.094,-0.691,0.000,0.000,0.000,-222557
5.042934894561768,98644016,3.344,-9.094,-0.691,0.000,0.000,0.000,-223109
5.0491368770599365,98650237,3.383,-9.094,-0.730,0.000,0.000,0.000,-222216
5.054348945617676,98655458,3.383,-9.094,-0.730,0.000,0.000,0.000,-222406
5.059576988220215,98660679,3.344,-9.137,-0.656,0.000,0.000,0.000,-222756
5.063795804977417,98664900,3.344,-9.137,-0.656,0.000,0.000,0.000,-222355
5.071155786514282,98672121,3.305,-9.137,-0.730,0.000,0.000,0.000,-222469
5.076496839523315,98677342,3.305,-9.137,-0.730,0.000,0.000,0.000,-222801
5.083359003067017,98683563,3.305,-9.137,-0.730,0.000,0.000,0.000,-223516
5.0876078605651855,98688784,3.305,-9.098,-0.730,0.000,0.000,0.000,-222986
5.092894792556763,98694005,3.305,-9.098,-0.730,0.000,0.000,0.000,-222483
5.098162889480591,98699226,3.344,-9.094,-0.730,0.000,0.000,0.000,-222185
5.1024439334869385,98703447,3.344,-9.094,-0.730,0.000,0.000,0.000,-223080
5.108027935028076,98708668,3.344,-9.133,-0.691,0.000,0.000,0.000,-222876
5.111994743347168,98712889,3.344,-9.133,-0.691,0.000,0.000,0.000,-222892
5.116405010223389,98717110,3.383,-9.094,-0.730,0.000,0.000,0.000,-222635
5.121210813522339,98722331,3.383,-9.094,-0.730,0.000,0.000,0.000,-222710
5.125453948974609,98726552,3.344,-9.094,-0.730,0.000,0.000,0.000,-222599
5.130668878555298,98731773,3.344,-9.094,-0.730,0.000,0.000,0.000,-222819
5.135865926742554,98736994,3.305,-9.094,-0.809,0.000,0.000,0.000,-222641
5.141103744506836,98742215,3.305,-9.094,-0.809,0.000,0.000,0.000,-222312
5.145289897918701,98746436,3.344,-9.055,-0.770,0.000,0.000,0.000,-222177
5.150537967681885,98751657,3.344,-9.055,-0.770,0.000,0.000,0.000,-222508
5.1557629108428955,98756878,3.383,-9.094,-0.691,0.000,0.000,0.000,-223294
5.160025119781494,98761099,3.344,-9.098,-0.656,0.000,0.000,0.000,-222915
5.164217948913574,98765320,3.344,-9.098,-0.656,0.000,0.000,0.000,-222299
5.170463800430298,98771541,3.305,-9.133,-0.770,0.000,0.000,0.000,-221947
5.17467188835144,98775762,3.305,-9.133,-0.770,0.000,0.000,0.000,-222836
5.179877042770386,98780983,3.344,-9.094,-0.730,0.000,0.000,0.000,-222595
5.184347867965698,98785204,3.344,-9.094,-0.730,0.000,0.000,0.000,-222283
5.191314935684204,98792425,3.383,-9.137,-0.770,0.000,0.000,0.000,-223544
5.196523904800415,98797646,3.383,-9.137,-0.770,0.000,0.000,0.000,-222223
5.201793909072876,98802867,3.383,-9.137,-0.770,0.000,0.000,0.000,-221745
5.2060768604278564,98807088,3.305,-9.098,-0.730,0.000,0.000,0.000,-222908
5.212678909301758,98813309,3.305,-9.098,-0.730,0.000,0.000,0.000,-222075
5.21664571762085,98817530,3.305,-9.137,-0.691,0.000,0.000,0.000,-222445
5.221627712249756,98822751,3.305,-9.137,-0.691,0.000,0.000,0.000,-222087
5.225858926773071,98826972,3.305,-9.055,-0.730,0.000,0.000,0.000,-223531
5.231104850769043,98832193,3.383,-9.098,-0.809,0.000,0.000,0.000,-222465
5.2383198738098145,98839414,3.383,-9.098,-0.809,0.000,0.000,0.000,-222713
5.243635892868042,98844635,3.383,-9.098,-0.809,0.000,0.000,0.000,-222609
5.247809886932373,98848857,3.344,-9.094,-0.691,0.000,0.000,0.000,-222620
5.253117799758911,98854080,3.344,-9.094,-0.691,0.000,0.000,0.000,-222363
5.258164882659912,98859301,3.383,-9.133,-0.691,0.000,0.000,0.000,-223194
5.262353897094727,98863522,3.383,-9.133,-0.691,0.000,0.000,0.000,-222918
5.266650676727295,98867743,3.344,-9.094,-0.730,0.000,0.000,0.000,-222046
5.272863864898682,98873964,3.344,-9.094,-0.730,0.000,0.000,0.000,-222808
5.278163909912109,98879185,3.344,-9.094,-0.730,0.000,0.000,0.000,-222985
5.283576011657715,98884406,3.344,-9.094,-0.730,0.000,0.000,0.000,-222339
5.288522005081177,98889627,3.383,-9.098,-0.770,0.000,0.000,0.000,-222939
5.2937400341033936,98894848,3.383,-9.098,-0.770,0.000,0.000,0.000,-223669
5.300087928771973,98901069,3.344,-9.098,-0.770,0.000,0.000,0.000,-221918
5.304121017456055,98905290,3.344,-9.098,-0.770,0.000,0.000,0.000,-222730
5.311429738998413,98912511,3.344,-9.137,-0.656,0.000,0.000,0.000,-223387
5.316828727722168,98917732,3.344,-9.137,-0.656,0.000,0.000,0.000,-222829
5.321858882904053,98922953,3.383,-9.094,-0.730,0.000,0.000,0.000,-222204
5.325100898742676,98926174,3.383,-9.094,-0.730,0.000,0.000,0.000,-222729
5.3324480056762695,98933395,3.383,-9.094,-0.730,0.000,0.000,0.000,-222443
5.336761951446533,98937616,3.305,-9.133,-0.770,0.000,0.000,0.000,-222861
5.3419349193573,98942837,3.305,-9.133,-0.770,0.000,0.000,0.000,-223156
5.346162796020508,98947059,3.344,-9.133,-0.691,0.000,0.000,0.000,-222896
5.351227760314941,98952280,3.383,-9.133,-0.691,0.000,0.000,0.000,-221751
5.355391979217529,98956501,3.383,-9.133,-0.691,0.000,0.000,0.000,-222918
5.360566854476929,98961722,3.344,-9.137,-0.617,0.000,0.000,0.000,-222375
5.364869832992554,98965943,3.344,-9.137,-0.617,0.000,0.000,0.000,-222000
5.371267080307007,98972164,3.305,-9.137,-0.730,0.000,0.000,0.000,-222498
5.376495838165283,98977385,3.305,-9.137,-0.730,0.000,0.000,0.000,-222696
5.381728887557983,98982606,3.344,-9.098,-0.770,0.000,0.000,0.000,-222220
5.3866658210754395,98987827,3.344,-9.098,-0.770,0.000,0.000,0.000,-222177
5.393923997879028,98995048,3.344,-9.098,-0.770,0.000,0.000,0.000,-222715
5.398308992385864,98999269,3.383,-9.133,-0.691,0.000,0.000,0.000,-221579
5.40366005897522,99004490,3.383,-9.133,-0.691,0.000,0.000,0.000,-222735
5.408831834793091,99009711,3.305,-9.133,-0.617,0.000,0.000,0.000,-223053
5.414130926132202,99014932,3.305,-9.133,-0.617,0.000,0.000,0.000,-222199
5.420061826705933,99021153,3.383,-9.094,-0.730,0.000,0.000,0.000,-222697
5.425265789031982,99026374,3.383,-9.094,-0.730,0.000,0.000,0.000,-222989
5.431514024734497,99032595,3.383,-9.094,-0.691,0.000,0.000,0.000,-222258
5.435710906982422,99036816,3.383,-9.094,-0.691,0.000,0.000,0.000,-222720
5.439924001693726,99041037,3.383,-9.094,-0.730,0.000,0.000,0.000,-222754
5.444541931152344,99045258,3.383,-9.094,-0.730,0.000,0.000,0.000,-223612
5.449357032775879,99050479,3.344,-9.094,-0.691,0.000,0.000,0.000,-223143
5.455559968948364,99056700,3.344,-9.094,-0.691,0.000,0.000,0.000,-222730
5.4617698192596436,99062921,3.344,-9.098,-0.770,0.000,0.000,0.000,-222547
5.467045783996582,99068142,3.344,-9.098,-0.770,0.000,0.000,0.000,-222499
5.475337982177734,99076363,3.344,-9.098,-0.770,0.000,0.000,0.000,-222665
5.478569984436035,99079584,3.344,-9.098,-0.770,0.000,0.000,0.000,-222641
5.488710880279541,99089805,3.344,-9.098,-0.770,0.000,0.000,0.000,-223305
5.4949328899383545,99096026,3.344,-9.098,-0.770,0.000,0.000,0.000,-221763
5.499147891998291,99100247,3.344,-9.098,-0.656,0.000,0.000,0.000,-222339
5.504561901092529,99105468,3.344,-9.098,-0.656,0.000,0.000,0.000,-222276
5.508795738220215,99109689,3.305,-9.094,-0.770,0.000,0.000,0.000,-223597
5.515037775039673,99115912,3.305,-9.094,-0.770,0.000,0.000,0.000,-222453
5.520171880722046,99121133,3.383,-9.094,-0.730,0.000,0.000,0.000,-222513
5.525232791900635,99126354,3.383,-9.094,-0.730,0.000,0.000,0.000,-222461
5.530463933944702,99131575,3.305,-9.137,-0.691,0.000,0.000,0.000,-222399
5.53574800491333,99136796,3.305,-9.137,-0.691,0.000,0.000,0.000,-221831
5.541900873184204,99143017,3.383,-9.094,-0.730,0.000,0.000,0.000,-222788
5.546252012252808,99147238,3.383,-9.094,-0.730,0.000,0.000,0.000,-222897
5.5533607006073,99154459,3.305,-9.133,-0.656,0.000,0.000,0.000,-222605
5.558600902557373,99159680,3.305,-9.133,-0.656,0.000,0.000,0.000,-223160
5.564841985702515,99165901,3.344,-9.133,-0.730,0.000,0.000,0.000,-222217
5.567096948623657,99168122,3.344,-9.133,-0.730,0.000,0.000,0.000,-222181
5.574295997619629,99175343,3.305,-9.094,-0.770,0.000,0.000,0.000,-223220
5.579571962356567,99180564,3.305,-9.094,-0.770,0.000,0.000,0.000,-221815
5.585600852966309,99186785,3.305,-9.094,-0.770,0.000,0.000,0.000,-222173
5.591887712478638,99193006,3.344,-9.098,-0.770,0.000,0.000,0.000,-223138
5.597140789031982,99198227,3.344,-9.098,-0.770,0.000,0.000,0.000,-222185
5.6024329662323,99203448,3.305,-9.098,-0.730,0.000,0.000,0.000,-221700
5.607196807861328,99207669,3.305,-9.098,-0.730,0.000,0.000,0.000,-222131
5.614015817642212,99214891,3.344,-9.133,-0.691,0.000,0.000,0.000,-222487
5.618984937667847,99220112,3.344,-9.133,-0.691,0.000,0.000,0.000,-222833
5.625211715698242,99226333,3.305,-9.059,-0.770,0.000,0.000,0.000,-222191
5.628410816192627,99229554,3.305,-9.059,-0.770,0.000,0.000,0.000,-222378
5.635653734207153,99236775,3.305,-9.059,-0.770,0.000,0.000,0.000,-222055
5.641933917999268,99242996,3.344,-9.137,-0.656,0.000,0.000,0.000,-223190
5.646087884902954,99247217,3.344,-9.137,-0.656,0.000,0.000,0.000,-222467
5.653482913970947,99254438,3.344,-9.094,-0.691,0.000,0.000,0.000,-222992
5.658547878265381,99259659,3.344,-9.094,-0.691,0.000,0.000,0.000,-223456
5.663789987564087,99264880,3.344,-9.094,-0.691,0.000,0.000,0.000,-221999
5.667938947677612,99269101,3.344,-9.094,-0.691,0.000,0.000,0.000,-222048
5.673292875289917,99274322,3.305,-9.098,-0.691,0.000,0.000,0.000,-222931
5.678234815597534,99278543,3.305,-9.098,-0.691,0.000,0.000,0.000,-222463
5.683706045150757,99283764,3.344,-9.094,-0.730,0.000,0.000,0.000,-222820
5.6878838539123535,99288985,3.344,-9.094,-0.730,0.000,0.000,0.000,-222295
5.695197820663452,99296206,3.344,-9.059,-0.691,0.000,0.000,0.000,-223194
5.698440790176392,99299427,3.344,-9.059,-0.691,0.000,0.000,0.000,-222705
5.705772876739502,99306648,3.344,-9.059,-0.691,0.000,0.000,0.000,-222543
5.712989807128906,99313869,3.305,-9.137,-0.691,0.000,0.000,0.000,-222895
5.717610836029053,99318090,3.305,-9.137,-0.691,0.000,0.000,0.000,-222838
5.721210718154907,99322311,3.344,-9.137,-0.770,0.000,0.000,0.000,-223139
5.725420951843262,99326532,3.344,-9.137,-0.770,0.000,0.000,0.000,-223114
5.731667995452881,99332753,3.344,-9.094,-0.730,0.000,0.000,0.000,-223123
5.73786997795105,99338974,3.344,-9.094,-0.730,0.000,0.000,0.000,-223390
5.743121862411499,99344195,3.344,-9.137,-0.656,0.000,0.000,0.000,-222929
5.74833083152771,99349416,3.344,-9.137,-0.656,0.000,0.000,0.000,-222885
5.755559921264648,99356637,3.344,-9.098,-0.656,0.000,0.000,0.000,-223228
5.76081395149231,99361858,3.344,-9.098,-0.656,0.000,0.000,0.000,-222748
5.766085863113403,99367079,3.344,-9.098,-0.656,0.000,0.000,0.000,-222601
5.770488023757935,99371300,3.383,-9.137,-0.770,0.000,0.000,0.000,-221820
5.77663779258728,99377521,3.383,-9.137,-0.770,0.000,0.000,0.000,-222785
5.781146764755249,99381742,3.383,-9.059,-0.691,0.000,0.000,0.000,-221636
5.785283088684082,99385963,3.344,-9.098,-0.770,0.000,0.000,0.000,-222373
5.789076805114746,99390184,3.344,-9.098,-0.770,0.000,0.000,0.000,-222880
5.797444820404053,99398405,3.305,-9.094,-0.656,0.000,0.000,0.000,-222509
5.800644874572754,99401626,3.305,-9.094,-0.656,0.000,0.000,0.000,-221968
5.80797004699707,99408847,3.305,-9.094,-0.656,0.000,0.000,0.000,-222828
5.81518292427063,99416068,3.383,-9.055,-0.770,0.000,0.000,0.000,-222079
5.81923770904541,99420289,3.383,-9.055,-0.770,0.000,0.000,0.000,-221795
5.824397087097168,99425510,3.383,-9.098,-0.770,0.000,0.000,0.000,-222966
5.829751968383789,99430731,3.383,-9.098,-0.770,0.000,0.000,0.000,-222474
5.836907863616943,99437952,3.344,-9.094,-0.730,0.000,0.000,0.000,-222183
5.8400890827178955,99441173,3.344,-9.094,-0.730,0.000,0.000,0.000,-222447
5.845263719558716,99446394,3.305,-9.094,-0.656,0.000,0.000,0.000,-222875
5.849515914916992,99450615,3.305,-9.094,-0.656,0.000,0.000,0.000,-222492
5.8557398319244385,99456836,3.305,-9.098,-0.691,0.000,0.000,0.000,-223001
5.860970973968506,99462058,3.305,-9.098,-0.691,0.000,0.000,0.000,-221544
5.867465972900391,99468279,3.344,-9.059,-0.730,0.000,0.000,0.000,-222353
5.872609853744507,99473500,3.344,-9.059,-0.730,0.000,0.000,0.000,-222601
5.87907600402832,99479721,3.344,-9.059,-0.730,0.000,0.000,0.000,-222988
5.884122133255005,99484942,3.344,-9.133,-0.691,0.000,0.000,0.000,-222016
5.8881189823150635,99489163,3.344,-9.133,-0.691,0.000,0.000,0.000,-222510
5.893330812454224,99494384,3.383,-9.133,-0.730,0.000,0.000,0.000,-222904
5.8987720012664795,99499605,3.383,-9.133,-0.730,0.000,0.000,0.000,-222150
5.90492582321167,99505826,3.344,-9.133,-0.691,0.000,0.000,0.000,-222243
5.910181760787964,99511047,3.344,-9.133,-0.691,0.000,0.000,0.000,-222748
5.918178081512451,99518268,3.344,-9.094,-0.730,0.000,0.000,0.000,-222139
5.9213550090789795,99522489,3.344,-9.094,-0.730,0.000,0.000,0.000,-222598
5.926647901535034,99527710,3.344,-9.133,-0.730,0.000,0.000,0.000,-221936
5.932016849517822,99532931,3.344,-9.133,-0.730,0.000,0.000,0.000,-221903
5.938058853149414,99539152,3.344,-9.133,-0.730,0.000,0.000,0.000,-222579
5.943748712539673,99544373,3.305,-9.098,-0.691,0.000,0.000,0.000,-223510
5.948610067367554,99549594,3.305,-9.098,-0.691,0.000,0.000,0.000,-222626
5.953668117523193,99554815,3.383,-9.094,-0.691,0.000,0.000,0.000,-222908
5.958967924118042,99560036,3.383,-9.094,-0.691,0.000,0.000,0.000,-222601
5.965254783630371,99566257,3.344,-9.098,-0.770,0.000,0.000,0.000,-221879
5.969604015350342,99570478,3.344,-9.098,-0.770,0.000,0.000,0.000,-222667
5.976845979690552,99577699,3.344,-9.094,-0.730,0.000,0.000,0.000,-222256
5.9820427894592285,99582920,3.344,-9.094,-0.730,0.000,0.000,0.000,-222405
5.991106033325195,99592141,3.344,-9.059,-0.691,0.000,0.000,0.000,-222887
5.994459867477417,99595362,3.344,-9.059,-0.691,0.000,0.000,0.000,-222604
6.000716924667358,99601583,3.344,-9.059,-0.691,0.000,0.000,0.000,-222929
6.0069639682769775,99607804,3.344,-9.133,-0.730,0.000,0.000,0.000,-222809
6.011251926422119,99612025,3.344,-9.133,-0.730,0.000,0.000,0.000,-223649
6.017345905303955,99618246,3.344,-9.094,-0.691,0.000,0.000,0.000,-222176
6.021362781524658,99622467,3.344,-9.094,-0.691,0.000,0.000,0.000,-222411
6.026572942733765,99627688,3.305,-9.094,-0.770,0.000,0.000,0.000,-222042
6.0318238735198975,99632909,3.305,-9.094,-0.770,0.000,0.000,0.000,-222530
6.038048982620239,99639130,3.305,-9.094,-0.770,0.000,0.000,0.000,-223263
6.043267011642456,99644351,3.344,-9.137,-0.656,0.000,0.000,0.000,-222574
6.047501087188721,99648572,3.344,-9.137,-0.656,0.000,0.000,0.000,-222237
6.052738904953003,99653793,3.344,-9.137,-0.656,0.000,0.000,0.000,-222396
6.057928800582886,99659015,3.344,-9.137,-0.656,0.000,0.000,0.000,-222749
6.06421971321106,99665235,3.344,-9.094,-0.730,0.000,0.000,0.000,-222033
6.0684638023376465,99669456,3.344,-9.094,-0.730,0.000,0.000,0.000,-222630
6.072869777679443,99673677,3.344,-9.098,-0.770,0.000,0.000,0.000,-222701
6.078010082244873,99678898,3.305,-9.098,-0.848,0.000,0.000,0.000,-221615
6.083499908447266,99684118,3.305,-9.098,-0.848,0.000,0.000,0.000,-222668
6.089247941970825,99690339,3.344,-9.055,-0.617,0.000,0.000,0.000,-222594
6.092456817626953,99693560,3.344,-9.055,-0.617,0.000,0.000,0.000,-222019
6.09981894493103,99700781,3.344,-9.055,-0.617,0.000,0.000,0.000,-222113
6.106415033340454,99707002,3.344,-9.137,-0.617,0.000,0.000,0.000,-222805
6.1113808155059814,99712223,3.344,-9.137,-0.617,0.000,0.000,0.000,-222627
6.118433952331543,99719444,3.344,-9.137,-0.617,0.000,0.000,0.000,-222755
6.121495962142944,99722665,3.344,-9.098,-0.809,0.000,0.000,0.000,-222834
6.125786781311035,99726887,3.344,-9.098,-0.770,0.000,0.000,0.000,-222324
6.131081819534302,99732108,3.344,-9.098,-0.770,0.000,0.000,0.000,-222278
6.137308835983276,99738329,3.305,-9.094,-0.656,0.000,0.000,0.000,-222033
6.14168381690979,99742550,3.305,-9.094,-0.656,0.000,0.000,0.000,-222205
6.14688777923584,99747770,3.383,-9.137,-0.656,0.000,0.000,0.000,-222813
6.152302026748657,99752991,3.383,-9.137,-0.656,0.000,0.000,0.000,-223220
6.160161972045898,99761213,3.344,-9.094,-0.730,0.000,0.000,0.000,-222504
6.163338899612427,99764434,3.344,-9.094,-0.730,0.000,0.000,0.000,-222379
6.16961669921875,99770655,3.344,-9.094,-0.730,0.000,0.000,0.000,-221971
6.1760218143463135,99776876,3.344,-9.133,-0.691,0.000,0.000,0.000,-222683
6.180954694747925,99782097,3.344,-9.133,-0.691,0.000,0.000,0.000,-222582
6.186180830001831,99787318,3.344,-9.094,-0.691,0.000,0.000,0.000,-222583
6.190402030944824,99791539,3.344,-9.094,-0.691,0.000,0.000,0.000,-223367
6.196636915206909,99797760,3.383,-9.094,-0.691,0.000,0.000,0.000,-222481
6.200907945632935,99801981,3.383,-9.094,-0.691,0.000,0.000,0.000,-222770
6.206086874008179,99807202,3.305,-9.094,-0.656,0.000,0.000,0.000,-222312
6.211361885070801,99812423,3.305,-9.094,-0.656,0.000,0.000,0.000,-222408
6.218554735183716,99819644,3.344,-9.098,-0.809,0.000,0.000,0.000,-221887
6.222748756408691,99823866,3.344,-9.098,-0.809,0.000,0.000,0.000,-222749
6.227953910827637,99829087,3.305,-9.098,-0.730,0.000,0.000,0.000,-221985
6.233232736587524,99834308,3.305,-9.098,-0.730,0.000,0.000,0.000,-222318
6.242450952529907,99843529,3.305,-9.098,-0.730,0.000,0.000,0.000,-223232
6.246645927429199,99847750,3.344,-9.098,-0.656,0.000,0.000,0.000,-222388
6.25269079208374,99852971,3.344,-9.098,-0.656,0.000,0.000,0.000,-222311
6.258117914199829,99859192,3.344,-9.094,-0.730,0.000,0.000,0.000,-222842
6.263269901275635,99864413,3.344,-9.094,-0.730,0.000,0.000,0.000,-222481
6.268666744232178,99869634,3.383,-9.094,-0.730,0.000,0.000,0.000,-221925
6.2728118896484375,99873855,3.383,-9.094,-0.730,0.000,0.000,0.000,-222646
6.280293703079224,99881076,3.383,-9.094,-0.730,0.000,0.000,0.000,-222213
6.284193992614746,99885297,3.344,-9.094,-0.730,0.000,0.000,0.000,-222040
6.289430856704712,99890518,3.344,-9.094,-0.730,0.000,0.000,0.000,-222494
6.293778896331787,99894739,3.344,-9.094,-0.691,0.000,0.000,0.000,-223077
6.299926042556763,99900960,3.344,-9.094,-0.691,0.000,0.000,0.000,-221939
6.303194761276245,99904181,3.344,-9.094,-0.691,0.000,0.000,0.000,-223167
6.307568788528442,99908402,3.344,-9.094,-0.691,0.000,0.000,0.000,-222431
6.311745882034302,99912623,3.344,-9.094,-0.691,0.000,0.000,0.000,-222883
6.31787896156311,99918846,3.305,-9.055,-0.730,0.000,0.000,0.000,-222334
6.322926998138428,99924067,3.305,-9.055,-0.730,0.000,0.000,0.000,-223383
6.329164028167725,99930288,3.383,-9.176,-0.691,0.000,0.000,0.000,-222490
6.334513902664185,99935509,3.383,-9.176,-0.691,0.000,0.000,0.000,-222593
6.3409178256988525,99941730,3.383,-9.176,-0.691,0.000,0.000,0.000,-223132
6.346067905426025,99946951,3.383,-9.094,-0.691,0.000,0.000,0.000,-222083
6.351414918899536,99952172,3.383,-9.094,-0.691,0.000,0.000,0.000,-221808
6.356294870376587,99957393,3.305,-9.094,-0.656,0.000,0.000,0.000,-221907
6.360522985458374,99961613,3.305,-9.094,-0.656,0.000,0.000,0.000,-222972
6.3658287525177,99966834,3.344,-9.059,-0.730,0.000,0.000,0.000,-222053
6.37119197845459,99972055,3.344,-9.059,-0.730,0.000,0.000,0.000,-222538
6.376401901245117,99977276,3.305,-9.137,-0.730,0.000,0.000,0.000,-222605
6.381626844406128,99982497,3.305,-9.137,-0.730,0.000,0.000,0.000,-221787
6.386603832244873,99987718,3.344,-9.133,-0.691,0.000,0.000,0.000,-222054
6.39184308052063,99992939,3.344,-9.133,-0.691,0.000,0.000,0.000,-222324
6.39610481262207,99997160,3.344,-9.094,-0.691,0.000,0.000,0.000,-223065
6.4023988246917725,100003381,3.344,-9.094,-0.691,0.000,0.000,0.000,-222945
6.408777952194214,100009601,3.305,-9.098,-0.730,0.000,0.000,0.000,-223077
6.412959814071655,100013821,3.305,-9.098,-0.730,0.000,0.000,0.000,-221604
6.418935060501099,100020041,3.344,-9.137,-0.809,0.000,0.000,0.000,-222097
6.423153877258301,100024261,3.344,-9.137,-0.809,0.000,0.000,0.000,-223324
6.428378105163574,100029481,3.305,-9.094,-0.656,0.000,0.000,0.000,-222297
6.433640956878662,100034701,3.305,-9.094,-0.656,0.000,0.000,0.000,-222520
6.440815687179565,100041921,3.344,-9.094,-0.691,0.000,0.000,0.000,-222874
6.444031000137329,100045141,3.344,-9.094,-0.691,0.000,0.000,0.000,-222470
6.449259996414185,100050361,3.344,-9.098,-0.770,0.000,0.000,0.000,-221965
6.453572750091553,100054581,3.344,-9.098,-0.770,0.000,0.000,0.000,-222515
6.46071982383728,100061801,3.344,-9.094,-0.730,0.000,0.000,0.000,-223029
6.464032888412476,100065022,3.344,-9.094,-0.730,0.000,0.000,0.000,-222616
6.4691689014434814,100070243,3.344,-9.133,-0.730,0.000,0.000,0.000,-222179
6.474402904510498,100075463,3.344,-9.133,-0.730,0.000,0.000,0.000,-222616
6.481632947921753,100082683,3.344,-9.133,-0.730,0.000,0.000,0.000,-222121
6.485844850540161,100086903,3.344,-9.059,-0.691,0.000,0.000,0.000,-221573
6.493032932281494,100094123,3.344,-9.059,-0.691,0.000,0.000,0.000,-222927
6.500210762023926,100101343,3.344,-9.133,-0.730,0.000,0.000,0.000,-222763
6.505582094192505,100106563,3.344,-9.133,-0.730,0.000,0.000,0.000,-222080
6.51102089881897,100111783,3.305,-9.133,-0.809,0.000,0.000,0.000,-223246
6.515142917633057,100116003,3.305,-9.133,-0.809,0.000,0.000,0.000,-222613
6.522121906280518,100123224,3.305,-9.094,-0.770,0.000,0.000,0.000,-222360
6.525388956069946,100126444,3.305,-9.094,-0.770,0.000,0.000,0.000,-222641
6.531731843948364,100132664,3.305,-9.094,-0.770,0.000,0.000,0.000,-222524
6.536149024963379,100136884,3.383,-9.133,-0.691,0.000,0.000,0.000,-222472
6.541329860687256,100142104,3.383,-9.133,-0.691,0.000,0.000,0.000,-222341
6.546490907669067,100147324,3.344,-9.098,-0.656,0.000,0.000,0.000,-222557
6.551717042922974,100152544,3.344,-9.098,-0.656,0.000,0.000,0.000,-222436
6.555623769760132,100156764,3.383,-9.098,-0.770,0.000,0.000,0.000,-222794
6.560943841934204,100161984,3.383,-9.098,-0.770,0.000,0.000,0.000,-222184
6.566357851028442,100167204,3.305,-9.094,-0.770,0.000,0.000,0.000,-222708
6.5715718269348145,100172424,3.305,-9.094,-0.770,0.000,0.000,0.000,-222519
6.576797962188721,100177644,3.344,-9.094,-0.691,0.000,0.000,0.000,-222615
6.582212686538696,100182864,3.344,-9.094,-0.691,0.000,0.000,0.000,-221750
6.586910963058472,100188084,3.344,-9.137,-0.656,0.000,0.000,0.000,-222337
6.59119987487793,100192304,3.344,-9.137,-0.656,0.000,0.000,0.000,-222183
6.596440076828003,100197524,3.305,-9.098,-0.691,0.000,0.000,0.000,-222331
6.601644992828369,100202744,3.305,-9.098,-0.691,0.000,0.000,0.000,-221920
6.607905864715576,100208964,3.344,-9.098,-0.770,0.000,0.000,0.000,-222795
6.613102912902832,100214184,3.344,-9.098,-0.770,0.000,0.000,0.000,-222662
6.620290994644165,100221404,3.344,-9.094,-0.691,0.000,0.000,0.000,-222851
6.625513792037964,100226624,3.344,-9.094,-0.691,0.000,0.000,0.000,-222832
6.63077712059021,100231845,3.305,-9.098,-0.691,0.000,0.000,0.000,-222327
6.636017799377441,100237065,3.305,-9.098,-0.691,0.000,0.000,0.000,-222963
6.643203973770142,100244285,3.305,-9.098,-0.691,0.000,0.000,0.000,-222881
6.647400856018066,100248505,3.305,-9.098,-0.730,0.000,0.000,0.000,-222599
6.651948928833008,100252725,3.305,-9.098,-0.730,0.000,0.000,0.000,-222085
6.6558449268341064,100256945,3.344,-9.059,-0.730,0.000,0.000,0.000,-222549
6.662064790725708,100263165,3.344,-9.059,-0.730,0.000,0.000,0.000,-222743
6.668310880661011,100269385,3.344,-9.094,-0.730,0.000,0.000,0.000,-221512
6.673551797866821,100274605,3.344,-9.094,-0.730,0.000,0.000,0.000,-222336
6.678865909576416,100279825,3.383,-9.133,-0.691,0.000,0.000,0.000,-222382
6.6846137046813965,100284047,3.383,-9.133,-0.691,0.000,0.000,0.000,-222931
6.688150882720947,100289267,3.344,-9.094,-0.730,0.000,0.000,0.000,-222643
6.6934850215911865,100294488,3.344,-9.094,-0.730,0.000,0.000,0.000,-222043
6.698683738708496,100299708,3.344,-9.094,-0.730,0.000,0.000,0.000,-221745
6.703942775726318,100304928,3.344,-9.094,-0.730,0.000,0.000,0.000,-223080
6.710283994674683,100311148,3.383,-9.098,-0.809,0.000,0.000,0.000,-222990
6.715533018112183,100316368,3.383,-9.098,-0.809,0.000,0.000,0.000,-221744
6.723525762557983,100324588,3.383,-9.098,-0.809,0.000,0.000,0.000,-222861
6.727679967880249,100328808,3.305,-9.137,-0.730,0.000,0.000,0.000,-222862
6.733170747756958,100334028,3.305,-9.137,-0.730,0.000,0.000,0.000,-221327
6.738383054733276,100339248,3.383,-9.133,-0.730,0.000,0.000,0.000,-223023
6.745053768157959,100345468,3.383,-9.133,-0.730,0.000,0.000,0.000,-222973
6.750918865203857,100351688,3.383,-9.098,-0.656,0.000,0.000,0.000,-222750
6.755919694900513,100356908,3.383,-9.098,-0.656,0.000,0.000,0.000,-222649
6.762243032455444,100363128,3.383,-9.098,-0.656,0.000,0.000,0.000,-222661
6.765528917312622,100366348,3.344,-9.133,-0.730,0.000,0.000,0.000,-222170
6.769774913787842,100370568,3.344,-9.094,-0.730,0.000,0.000,0.000,-222544
6.773939847946167,100374788,3.344,-9.094,-0.730,0.000,0.000,0.000,-223279
6.7801408767700195,100381008,3.344,-9.133,-0.730,0.000,0.000,0.000,-222776
6.785402774810791,100386228,3.344,-9.133,-0.730,0.000,0.000,0.000,-222679
6.791438102722168,100392448,3.344,-9.133,-0.691,0.000,0.000,0.000,-223226
6.796702861785889,100397668,3.344,-9.133,-0.691,0.000,0.000,0.000,-222702
6.804027795791626,100404888,3.344,-9.133,-0.691,0.000,0.000,0.000,-222428
6.807258129119873,100408108,3.305,-9.098,-0.691,0.000,0.000,0.000,-223057
6.812449932098389,100413328,3.305,-9.098,-0.691,0.000,0.000,0.000,-222688
6.816684007644653,100417549,3.305,-9.098,-0.730,0.000,0.000,0.000,-222708
6.821669101715088,100422769,3.305,-9.098,-0.730,0.000,0.000,0.000,-222383
6.826920986175537,100427989,3.344,-9.094,-0.730,0.000,0.000,0.000,-222006
6.831146955490112,100432209,3.383,-9.137,-0.656,0.000,0.000,0.000,-222219
6.836396932601929,100437429,3.383,-9.137,-0.656,0.000,0.000,0.000,-222383
6.84462308883667,100445649,3.383,-9.137,-0.656,0.000,0.000,0.000,-222272
6.847785949707031,100448869,3.383,-9.137,-0.656,0.000,0.000,0.000,-221868
6.854789733886719,100455089,3.383,-9.137,-0.656,0.000,0.000,0.000,-222795
6.85824990272522,100459309,3.305,-9.098,-0.730,0.000,0.000,0.000,-222793
6.863442897796631,100464529,3.305,-9.098,-0.730,0.000,0.000,0.000,-222309
6.868675947189331,100469749,3.344,-9.098,-0.770,0.000,0.000,0.000,-222634
6.873966932296753,100474969,3.344,-9.098,-0.770,0.000,0.000,0.000,-222307
6.878176927566528,100479189,3.344,-9.094,-0.691,0.000,0.000,0.000,-222900
6.8843419551849365,100485409,3.344,-9.094,-0.691,0.000,0.000,0.000,-222046
6.890543699264526,100491629,3.305,-9.098,-0.730,0.000,0.000,0.000,-223028
6.895982980728149,100496849,3.305,-9.098,-0.730,0.000,0.000,0.000,-223000
6.904206037521362,100505069,3.305,-9.098,-0.730,0.000,0.000,0.000,-223141
6.9077067375183105,100508289,3.305,-9.055,-0.730,0.000,0.000,0.000,-222627
6.911664724349976,100512509,3.383,-9.094,-0.730,0.000,0.000,0.000,-222533
6.915748119354248,100516729,3.383,-9.094,-0.730,0.000,0.000,0.000,-222484
6.922869920730591,100523949,3.383,-9.094,-0.730,0.000,0.000,0.000,-222751
6.926088809967041,100527169,3.344,-9.133,-0.691,0.000,0.000,0.000,-223022
6.9292778968811035,100530389,3.344,-9.059,-0.730,0.000,0.000,0.000,-222306
6.9336278438568115,100534609,3.344,-9.059,-0.730,0.000,0.000,0.000,-222075
6.938891887664795,100539829,3.344,-9.098,-0.656,0.000,0.000,0.000,-222919
6.944195032119751,100545049,3.344,-9.098,-0.656,0.000,0.000,0.000,-222147
6.951438903808594,100552269,3.344,-9.094,-0.691,0.000,0.000,0.000,-222231
6.956380844116211,100557489,3.344,-9.094,-0.691,0.000,0.000,0.000,-221835
6.964645862579346,100565709,3.344,-9.098,-0.770,0.000,0.000,0.000,-221827
6.967888832092285,100568929,3.344,-9.098,-0.770,0.000,0.000,0.000,-222708
6.9744040966033936,100575149,3.344,-9.098,-0.770,0.000,0.000,0.000,-222977
6.978534936904907,100579369,3.344,-9.133,-0.691,0.000,0.000,0.000,-222812
6.98455810546875,100584589,3.344,-9.133,-0.691,0.000,0.000,0.000,-222499
6.98867392539978,100589809,3.383,-9.098,-0.656,0.000,0.000,0.000,-223180
6.995957851409912,100597029,3.383,-9.098,-0.656,0.000,0.000,0.000,-222917
7.00117301940918,100602249,3.344,-9.094,-0.730,0.000,0.000,0.000,-222772
7.005444765090942,100606469,3.344,-9.094,-0.730,0.000,0.000,0.000,-222698
7.010717868804932,100611689,3.344,-9.094,-0.730,0.000,0.000,0.000,-222668
7.014922857284546,100615909,3.344,-9.094,-0.730,0.000,0.000,0.000,-223019
7.021986961364746,100623129,3.344,-9.137,-0.617,0.000,0.000,0.000,-223272
7.027251958847046,100628349,3.344,-9.137,-0.617,0.000,0.000,0.000,-222637
7.03249979019165,100633569,3.344,-9.133,-0.691,0.000,0.000,0.000,-221957
7.036690950393677,100637789,3.344,-9.133,-0.691,0.000,0.000,0.000,-222812
7.042966842651367,100644009,3.383,-9.133,-0.730,0.000,0.000,0.000,-222631
7.047102928161621,100648229,3.383,-9.133,-0.730,0.000,0.000,0.000,-222398
7.052337884902954,100653449,3.305,-9.098,-0.730,0.000,0.000,0.000,-222981
7.056567907333374,100657669,3.305,-9.098,-0.730,0.000,0.000,0.000,-222857
7.062798023223877,100663889,3.305,-9.094,-0.809,0.000,0.000,0.000,-222285
7.067106008529663,100668109,3.305,-9.094,-0.809,0.000,0.000,0.000,-222464
7.072285890579224,100673329,3.344,-9.094,-0.691,0.000,0.000,0.000,-222968
7.076575994491577,100677549,3.344,-9.094,-0.691,0.000,0.000,0.000,-222758
7.083738088607788,100684769,3.344,-9.094,-0.691,0.000,0.000,0.000,-222131
7.088892936706543,100689989,3.344,-9.094,-0.691,0.000,0.000,0.000,-222490
7.094166994094849,100695209,3.344,-9.133,-0.691,0.000,0.000,0.000,-222957
7.098473787307739,100699429,3.344,-9.133,-0.691,0.000,0.000,0.000,-222116
7.10506272315979,100705649,3.344,-9.094,-0.730,0.000,0.000,0.000,-222250
7.108999967575073,100709869,3.344,-9.094,-0.730,0.000,0.000,0.000,-222551
7.114258766174316,100715089,3.305,-9.055,-0.691,0.000,0.000,0.000,-222599
7.118271827697754,100719309,3.305,-9.055,-0.691,0.000,0.000,0.000,-222315
7.125447750091553,100726529,3.305,-9.094,-0.770,0.000,0.000,0.000,-222074
7.128696918487549,100729749,3.305,-9.094,-0.770,0.000,0.000,0.000,-222757
7.134042024612427,100734969,3.344,-9.094,-0.691,0.000,0.000,0.000,-222347
7.139526844024658,100740189,3.344,-9.094,-0.691,0.000,0.000,0.000,-223131
7.145612955093384,100746409,3.344,-9.094,-0.691,0.000,0.000,0.000,-222906
7.151150941848755,100751630,3.383,-9.094,-0.730,0.000,0.000,0.000,-222441
7.154703855514526,100755850,3.383,-9.094,-0.730,0.000,0.000,0.000,-222695
7.158983945846558,100760070,3.305,-9.098,-0.691,0.000,0.000,0.000,-222925
7.164172887802124,100765290,3.344,-9.133,-0.730,0.000,0.000,0.000,-223186
7.168416976928711,100769510,3.344,-9.133,-0.730,0.000,0.000,0.000,-222833
7.173644065856934,100774730,3.305,-9.098,-0.691,0.000,0.000,0.000,-222591
7.178802967071533,100779950,3.305,-9.098,-0.691,0.000,0.000,0.000,-222945
7.187043905258179,100788170,3.305,-9.098,-0.691,0.000,0.000,0.000,-222420
7.190237760543823,100791390,3.383,-9.133,-0.691,0.000,0.000,0.000,-221727
7.195418119430542,100796610,3.383,-9.133,-0.691,0.000,0.000,0.000,-221213
7.200755834579468,100801830,3.305,-9.094,-0.770,0.000,0.000,0.000,-222571
7.205950975418091,100807050,3.305,-9.094,-0.770,0.000,0.000,0.000,-223743
7.211160898208618,100812270,3.344,-9.098,-0.770,0.000,0.000,0.000,-222377
7.215394020080566,100816490,3.344,-9.098,-0.770,0.000,0.000,0.000,-222125
7.220976829528809,100821710,3.344,-9.137,-0.656,0.000,0.000,0.000,-222597
7.226869821548462,100827930,3.344,-9.137,-0.656,0.000,0.000,0.000,-222485
7.2340757846832275,100835150,3.305,-9.137,-0.730,0.000,0.000,0.000,-222452
7.238275051116943,100839370,3.305,-9.137,-0.730,0.000,0.000,0.000,-222843
7.248514890670776,100849590,3.305,-9.055,-0.691,0.000,0.000,0.000,-221881
7.251713037490845,100852810,3.305,-9.055,-0.691,0.000,0.000,0.000,-221947
7.257946729660034,100859032,3.305,-9.055,-0.691,0.000,0.000,0.000,-223153
7.265211820602417,100866252,3.305,-9.055,-0.691,0.000,0.000,0.000,-221784
7.268442869186401,100869473,3.383,-9.133,-0.730,0.000,0.000,0.000,-221906
7.2725608348846436,100873693,3.305,-9.137,-0.691,0.000,0.000,0.000,-222747
7.277879953384399,100878913,3.305,-9.137,-0.691,0.000,0.000,0.000,-222686
7.285271883010864,100886133,3.344,-9.055,-0.656,0.000,0.000,0.000,-222053
7.289262056350708,100890353,3.344,-9.055,-0.656,0.000,0.000,0.000,-222889
7.294479846954346,100895573,3.344,-9.094,-0.730,0.000,0.000,0.000,-222110
7.298746109008789,100899793,3.344,-9.094,-0.730,0.000,0.000,0.000,-222088
7.30720591545105,100908013,3.305,-9.133,-0.770,0.000,0.000,0.000,-223181
7.310376882553101,100911233,3.305,-9.133,-0.770,0.000,0.000,0.000,-222608
7.316819906234741,100917453,3.305,-9.133,-0.770,0.000,0.000,0.000,-221775
7.321587800979614,100922673,3.344,-9.094,-0.730,0.000,0.000,0.000,-222448
7.325807809829712,100926893,3.344,-9.094,-0.730,0.000,0.000,0.000,-222679
7.332051992416382,100933113,3.344,-9.094,-0.691,0.000,0.000,0.000,-222222
7.337289810180664,100938333,3.344,-9.094,-0.691,0.000,0.000,0.000,-223120
7.3425867557525635,100943553,3.344,-9.176,-0.691,0.000,0.000,0.000,-222993
7.347947835922241,100948773,3.344,-9.176,-0.691,0.000,0.000,0.000,-222814
7.353949785232544,100954993,3.305,-9.098,-0.730,0.000,0.000,0.000,-222727
7.358194828033447,100959213,3.305,-9.098,-0.730,0.000,0.000,0.000,-222377
7.365422964096069,100966433,3.344,-9.137,-0.770,0.000,0.000,0.000,-221725
7.36867094039917,100969653,3.344,-9.137,-0.770,0.000,0.000,0.000,-222228
7.37402081489563,100974873,3.344,-9.059,-0.691,0.000,0.000,0.000,-222565
7.3782639503479,100979093,3.344,-9.059,-0.691,0.000,0.000,0.000,-222469
7.3853068351745605,100986316,3.344,-9.094,-0.730,0.000,0.000,0.000,-222024
7.387434005737305,100988536,3.344,-9.094,-0.730,0.000,0.000,0.000,-222196
7.391690969467163,100992756,3.344,-9.098,-0.770,0.000,0.000,0.000,-222562
7.396956920623779,100997976,3.344,-9.098,-0.770,0.000,0.000,0.000,-222258
7.402223110198975,101003196,3.344,-9.059,-0.730,0.000,0.000,0.000,-221960
7.407616853713989,101008416,3.344,-9.059,-0.730,0.000,0.000,0.000,-222502
7.413858890533447,101014636,3.305,-9.098,-0.691,0.000,0.000,0.000,-222090
7.419158935546875,101019856,3.305,-9.098,-0.691,0.000,0.000,0.000,-222608
7.4269938468933105,101028076,3.305,-9.098,-0.691,0.000,0.000,0.000,-222632
7.431214094161987,101032296,3.305,-9.137,-0.730,0.000,0.000,0.000,-221780
7.4364519119262695,101037516,3.305,-9.137,-0.730,0.000,0.000,0.000,-222674
7.441765069961548,101042736,3.305,-9.098,-0.730,0.000,0.000,0.000,-222826
7.446877956390381,101047956,3.305,-9.098,-0.730,0.000,0.000,0.000,-222012
7.452584981918335,101053176,3.344,-9.094,-0.730,0.000,0.000,0.000,-222206
7.456256866455078,101057396,3.344,-9.094,-0.730,0.000,0.000,0.000,-223085
7.461477756500244,101062616,3.344,-9.094,-0.730,0.000,0.000,0.000,-222153
7.467775821685791,101068836,3.344,-9.094,-0.730,0.000,0.000,0.000,-222947
7.473987102508545,101075056,3.344,-9.094,-0.691,0.000,0.000,0.000,-223225
7.479276895523071,101080276,3.344,-9.094,-0.691,0.000,0.000,0.000,-222873
7.486473798751831,101087496,3.344,-9.094,-0.691,0.000,0.000,0.000,-221743
7.490689992904663,101091716,3.344,-9.094,-0.691,0.000,0.000,0.000,-222958
7.495962142944336,101096936,3.344,-9.094,-0.730,0.000,0.000,0.000,-223124
7.5034098625183105,101104156,3.344,-9.094,-0.730,0.000,0.000,0.000,-222232
7.50754189491272,101108376,3.344,-9.094,-0.730,0.000,0.000,0.000,-222489
7.512756824493408,101113596,3.344,-9.094,-0.730,0.000,0.000,0.000,-222982
7.517669916152954,101117817,3.344,-9.094,-0.730,0.000,0.000,0.000,-222114
7.521925687789917,101123037,3.383,-9.098,-0.656,0.000,0.000,0.000,-222979
7.527219772338867,101128257,3.383,-9.098,-0.656,0.000,0.000,0.000,-222754
7.533700704574585,101134477,3.344,-9.133,-0.730,0.000,0.000,0.000,-222593
7.538840055465698,101139697,3.344,-9.133,-0.730,0.000,0.000,0.000,-222641
7.54706597328186,101147917,3.344,-9.094,-0.730,0.000,0.000,0.000,-222947
7.551506757736206,101151137,3.344,-9.094,-0.730,0.000,0.000,0.000,-222208
7.556262731552124,101157357,3.344,-9.094,-0.730,0.000,0.000,0.000,-222101
7.560495138168335,101161577,3.383,-9.094,-0.730,0.000,0.000,0.000,-222500
7.565747976303101,101166797,3.344,-9.094,-0.691,0.000,0.000,0.000,-222374
7.570029973983765,101171017,3.344,-9.094,-0.691,0.000,0.000,0.000,-223134
7.575390815734863,101176237,3.344,-9.094,-0.691,0.000,0.000,0.000,-223309
7.5808398723602295,101181457,3.344,-9.094,-0.691,0.000,0.000,0.000,-223112
7.587553024291992,101188677,3.344,-9.094,-0.691,0.000,0.000,0.000,-223314
7.591814756393433,101192897,3.344,-9.094,-0.730,0.000,0.000,0.000,-222374
7.5980918407440186,101199117,3.344,-9.094,-0.730,0.000,0.000,0.000,-222358
7.605501890182495,101206337,3.344,-9.098,-0.770,0.000,0.000,0.000,-222613
7.609717845916748,101210557,3.344,-9.098,-0.770,0.000,0.000,0.000,-222574
7.614935874938965,101215777,3.344,-9.133,-0.691,0.000,0.000,0.000,-222564
7.619987964630127,101220997,3.344,-9.133,-0.691,0.000,0.000,0.000,-222716
7.626143932342529,101227217,3.305,-9.094,-0.617,0.000,0.000,0.000,-223750
7.630376815795898,101231437,3.305,-9.094,-0.617,0.000,0.000,0.000,-222174
7.634575843811035,101235657,3.383,-9.098,-0.656,0.000,0.000,0.000,-222933
7.638824939727783,101239877,3.383,-9.098,-0.656,0.000,0.000,0.000,-222139
7.646015882492065,101247097,3.383,-9.098,-0.809,0.000,0.000,0.000,-222646
7.651263952255249,101252317,3.383,-9.098,-0.809,0.000,0.000,0.000,-221623
7.657456874847412,101258537,3.383,-9.098,-0.809,0.000,0.000,0.000,-222684
7.6618828773498535,101262757,3.344,-9.098,-0.770,0.000,0.000,0.000,-223034
7.666979074478149,101267977,3.344,-9.098,-0.770,0.000,0.000,0.000,-222021
7.6730828285217285,101274197,3.383,-9.137,-0.656,0.000,0.000,0.000,-222625
7.678502798080444,101279417,3.383,-9.137,-0.656,0.000,0.000,0.000,-222606
7.682629823684692,101283637,3.344,-9.133,-0.691,0.000,0.000,0.000,-221645
7.6877827644348145,101288857,3.344,-9.133,-0.691,0.000,0.000,0.000,-222504
7.694042682647705,101295077,3.344,-9.094,-0.730,0.000,0.000,0.000,-222560
7.699342966079712,101300297,3.344,-9.094,-0.730,0.000,0.000,0.000,-222215
7.705662965774536,101306517,3.383,-9.094,-0.730,0.000,0.000,0.000,-222466
7.710010766983032,101310737,3.383,-9.094,-0.730,0.000,0.000,0.000,-223278
7.715124845504761,101315957,3.305,-9.137,-0.730,0.000,0.000,0.000,-222370
7.720091819763184,101321177,3.305,-9.137,-0.730,0.000,0.000,0.000,-222358
7.727360963821411,101328397,3.383,-9.133,-0.691,0.000,0.000,0.000,-221993
7.73058295249939,101331617,3.383,-9.133,-0.691,0.000,0.000,0.000,-222345
7.734869956970215,101335837,3.344,-9.094,-0.691,0.000,0.000,0.000,-221925
7.740185022354126,101341057,3.344,-9.094,-0.691,0.000,0.000,0.000,-222431
7.745455026626587,101346277,3.305,-9.098,-0.730,0.000,0.000,0.000,-222968
7.752751111984253,101353497,3.305,-9.098,-0.730,0.000,0.000,0.000,-222722
7.759710788726807,101360717,3.305,-9.137,-0.691,0.000,0.000,0.000,-221947
7.762794017791748,101363937,3.305,-9.137,-0.691,0.000,0.000,0.000,-221749
7.77030873298645,101371157,3.305,-9.137,-0.691,0.000,0.000,0.000,-222602
7.776525974273682,101377377,3.344,-9.137,-0.656,0.000,0.000,0.000,-222841
7.781795024871826,101382597,3.344,-9.137,-0.656,0.000,0.000,0.000,-222770
7.788743734359741,101389817,3.344,-9.094,-0.730,0.000,0.000,0.000,-223216
7.791942834854126,101393037,3.344,-9.094,-0.730,0.000,0.000,0.000,-222918
7.797178745269775,101398257,3.344,-9.137,-0.770,0.000,0.000,0.000,-222238
7.801419973373413,101402477,3.344,-9.137,-0.770,0.000,0.000,0.000,-221857
7.8086488246917725,101409697,3.305,-9.137,-0.730,0.000,0.000,0.000,-222558
7.812996864318848,101413917,3.305,-9.137,-0.730,0.000,0.000,0.000,-221714
7.818131923675537,101419137,3.383,-9.137,-0.656,0.000,0.000,0.000,-222762
7.823279857635498,101424357,3.383,-9.137,-0.656,0.000,0.000,0.000,-222459
7.830487012863159,101431577,3.383,-9.137,-0.656,0.000,0.000,0.000,-221840
7.833711862564087,101434797,3.383,-9.133,-0.730,0.000,0.000,0.000,-222261
7.838958978652954,101440017,3.383,-9.133,-0.730,0.000,0.000,0.000,-222792
7.843174934387207,101444237,3.422,-9.133,-0.770,0.000,0.000,0.000,-223164
7.849381685256958,101450457,3.422,-9.133,-0.770,0.000,0.000,0.000,-221487
7.855599880218506,101456677,3.344,-9.098,-0.770,0.000,0.000,0.000,-222207
7.859837770462036,101460897,3.344,-9.098,-0.770,0.000,0.000,0.000,-223317
7.865147829055786,101466117,3.344,-9.094,-0.730,0.000,0.000,0.000,-221993
7.869250059127808,101470337,3.344,-9.094,-0.730,0.000,0.000,0.000,-222082
7.874490737915039,101475557,3.383,-9.098,-0.656,0.000,0.000,0.000,-222632
7.879717111587524,101480777,3.383,-9.098,-0.656,0.000,0.000,0.000,-222928
7.884898900985718,101485997,3.383,-9.094,-0.691,0.000,0.000,0.000,-221817
7.890162944793701,101491217,3.383,-9.094,-0.691,0.000,0.000,0.000,-223457
7.896500825881958,101497437,3.344,-9.098,-0.770,0.000,0.000,0.000,-222226
7.900897026062012,101501657,3.344,-9.098,-0.770,0.000,0.000,0.000,-222345
7.9061360359191895,101506877,3.383,-9.133,-0.730,0.000,0.000,0.000,-223004
7.910258769989014,101511097,3.383,-9.133,-0.730,0.000,0.000,0.000,-222349
7.915482044219971,101516317,3.383,-9.137,-0.656,0.000,0.000,0.000,-222706
7.920387029647827,101521537,3.383,-9.137,-0.656,0.000,0.000,0.000,-222312
7.9257190227508545,101526757,3.305,-9.059,-0.656,0.000,0.000,0.000,-223069
7.930850982666016,101531977,3.305,-9.059,-0.656,0.000,0.000,0.000,-221697
7.938164949417114,101539197,3.344,-9.059,-0.730,0.000,0.000,0.000,-222597
7.943498849868774,101544417,3.344,-9.059,-0.730,0.000,0.000,0.000,-223041
7.950681924819946,101551637,3.344,-9.059,-0.730,0.000,0.000,0.000,-222831
7.954777956008911,101555857,3.344,-9.137,-0.656,0.000,0.000,0.000,-222616
7.96002197265625,101561077,3.344,-9.137,-0.656,0.000,0.000,0.000,-222676
7.9653480052948,101566297,3.305,-9.133,-0.656,0.000,0.000,0.000,-222223
7.971734046936035,101572517,3.305,-9.133,-0.656,0.000,0.000,0.000,-223551
7.97789192199707,101578737,3.344,-9.098,-0.617,0.000,0.000,0.000,-222865
7.983694076538086,101583957,3.344,-9.098,-0.617,0.000,0.000,0.000,-222208
7.9890618324279785,101590178,3.344,-9.098,-0.617,0.000,0.000,0.000,-222504
7.995289087295532,101596398,3.305,-9.098,-0.730,0.000,0.000,0.000,-223234
8.002529859542847,101603618,3.305,-9.098,-0.730,0.000,0.000,0.000,-223122
8.008750915527344,101609838,3.383,-9.133,-0.730,0.000,0.000,0.000,-222242
8.012966871261597,101614058,3.383,-9.133,-0.730,0.000,0.000,0.000,-222190
8.018300771713257,101619278,3.344,-9.133,-0.730,0.000,0.000,0.000,-222229
8.023411989212036,101624498,3.344,-9.133,-0.730,0.000,0.000,0.000,-222991
8.030613899230957,101631718,3.344,-9.133,-0.730,0.000,0.000,0.000,-222511
8.034873008728027,101635938,3.344,-9.133,-0.730,0.000,0.000,0.000,-222394
8.040069818496704,101641158,3.344,-9.133,-0.730,0.000,0.000,0.000,-223254
8.044292688369751,101645379,3.344,-9.098,-0.770,0.000,0.000,0.000,-222149
8.050556898117065,101651599,3.344,-9.098,-0.770,0.000,0.000,0.000,-221966
8.055742979049683,101656819,3.305,-9.098,-0.730,0.000,0.000,0.000,-222987
8.059956789016724,101661039,3.305,-9.098,-0.730,0.000,0.000,0.000,-222628
8.065181970596313,101666259,3.344,-9.133,-0.730,0.000,0.000,0.000,-222019
8.070384740829468,101671479,3.344,-9.133,-0.730,0.000,0.000,0.000,-222042
8.075725078582764,101676699,3.344,-9.094,-0.691,0.000,0.000,0.000,-222739
8.080854892730713,101681919,3.344,-9.094,-0.691,0.000,0.000,0.000,-222349
8.085017919540405,101686139,3.305,-9.094,-0.770,0.000,0.000,0.000,-222359
8.090271949768066,101691359,3.305,-9.094,-0.770,0.000,0.000,0.000,-223063
8.095541000366211,101696579,3.344,-9.137,-0.809,0.000,0.000,0.000,-222260
8.10076379776001,101701799,3.344,-9.137,-0.809,0.000,0.000,0.000,-221731
8.104970932006836,101706021,3.383,-9.094,-0.691,0.000,0.000,0.000,-222711
8.111258029937744,101712241,3.383,-9.094,-0.691,0.000,0.000,0.000,-221825
8.117511749267578,101718461,3.383,-9.098,-0.617,0.000,0.000,0.000,-222425
8.122550010681152,101723681,3.383,-9.098,-0.617,0.000,0.000,0.000,-222593
8.129838943481445,101730901,3.344,-9.059,-0.730,0.000,0.000,0.000,-221917
8.133985996246338,101735121,3.344,-9.059,-0.730,0.000,0.000,0.000,-221991
8.139208793640137,101740341,3.344,-9.055,-0.770,0.000,0.000,0.000,-222427
8.144402742385864,101745562,3.344,-9.055,-0.770,0.000,0.000,0.000,-221711
8.150575876235962,101751782,3.344,-9.055,-0.770,0.000,0.000,0.000,-222359
8.155778884887695,101757002,3.344,-9.137,-0.656,0.000,0.000,0.000,-223156
8.160018920898438,101761222,3.344,-9.137,-0.656,0.000,0.000,0.000,-223214
8.165217876434326,101766442,3.344,-9.137,-0.617,0.000,0.000,0.000,-221875
8.171437978744507,101772662,3.344,-9.137,-0.617,0.000,0.000,0.000,-222770
8.177668809890747,101778882,3.344,-9.094,-0.730,0.000,0.000,0.000,-222694
8.181933879852295,101783102,3.344,-9.094,-0.730,0.000,0.000,0.000,-222414
8.188138961791992,101789322,3.344,-9.059,-0.730,0.000,0.000,0.000,-223350
8.193382740020752,101794542,3.344,-9.059,-0.730,0.000,0.000,0.000,-222568
8.198619842529297,101799762,3.383,-9.137,-0.656,0.000,0.000,0.000,-223294
8.202820777893066,101803985,3.383,-9.137,-0.656,0.000,0.000,0.000,-222585
8.209080934524536,101810205,3.344,-9.133,-0.691,0.000,0.000,0.000,-222526
8.213266849517822,101814425,3.344,-9.133,-0.691,0.000,0.000,0.000,-222291
8.218464851379395,101819645,3.344,-9.098,-0.656,0.000,0.000,0.000,-222770
8.22266173362732,101823865,3.344,-9.098,-0.656,0.000,0.000,0.000,-222586
8.230005025863647,101831085,3.344,-9.094,-0.730,0.000,0.000,0.000,-222331
8.23416805267334,101835305,3.344,-9.094,-0.730,0.000,0.000,0.000,-222612
8.239335775375366,101840525,3.344,-9.137,-0.770,0.000,0.000,0.000,-223707
8.244538068771362,101845745,3.344,-9.137,-0.770,0.000,0.000,0.000,-222326
8.25278902053833,101853965,3.344,-9.137,-0.770,0.000,0.000,0.000,-222388
8.258056879043579,101859185,3.344,-9.059,-0.691,0.000,0.000,0.000,-222643
8.262263059616089,101863405,3.344,-9.059,-0.691,0.000,0.000,0.000,-222178
8.268471002578735,101869625,3.305,-9.098,-0.691,0.000,0.000,0.000,-222650
8.272700786590576,101873845,3.305,-9.098,-0.691,0.000,0.000,0.000,-223185
8.277901887893677,101879065,3.344,-9.094,-0.691,0.000,0.000,0.000,-222142
8.282156944274902,101883288,3.344,-9.094,-0.691,0.000,0.000,0.000,-221832
8.289377927780151,101890508,3.305,-9.094,-0.770,0.000,0.000,0.000,-223271
8.294563055038452,101895728,3.305,-9.094,-0.770,0.000,0.000,0.000,-222324
8.29984998703003,101900948,3.344,-9.098,-0.770,0.000,0.000,0.000,-222001
8.304044961929321,101905168,3.344,-9.098,-0.770,0.000,0.000,0.000,-223009
8.310265064239502,101911388,3.344,-9.137,-0.656,0.000,0.000,0.000,-222324
8.314510107040405,101915608,3.344,-9.137,-0.656,0.000,0.000,0.000,-222341
8.319725036621094,101920828,3.305,-9.098,-0.691,0.000,0.000,0.000,-223067
8.323941707611084,101925048,3.305,-9.098,-0.691,0.000,0.000,0.000,-223773
8.33213996887207,101933268,3.383,-9.098,-0.770,0.000,0.000,0.000,-222596
8.33548378944397,101936488,3.383,-9.098,-0.770,0.000,0.000,0.000,-222081
8.342619895935059,101943708,3.383,-9.098,-0.770,0.000,0.000,0.000,-222880
8.350843906402588,101951928,3.344,-9.059,-0.730,0.000,0.000,0.000,-222304
8.353084802627563,101954148,3.344,-9.059,-0.730,0.000,0.000,0.000,-222322
8.357271909713745,101958368,3.383,-9.133,-0.730,0.000,0.000,0.000,-223022
8.361543893814087,101962588,3.383,-9.133,-0.730,0.000,0.000,0.000,-222364
8.366744995117188,101967809,3.344,-9.133,-0.691,0.000,0.000,0.000,-222223
8.372968912124634,101974029,3.344,-9.133,-0.691,0.000,0.000,0.000,-222356
8.37824296951294,101979249,3.344,-9.094,-0.691,0.000,0.000,0.000,-223245
8.382429838180542,101983469,3.344,-9.094,-0.691,0.000,0.000,0.000,-222132
8.389732122421265,101990689,3.344,-9.094,-0.730,0.000,0.000,0.000,-222919
8.394882917404175,101995909,3.344,-9.094,-0.730,0.000,0.000,0.000,-222865
8.400290966033936,102001129,3.305,-9.094,-0.770,0.000,0.000,0.000,-222390
8.404495000839233,102005349,3.305,-9.094,-0.770,0.000,0.000,0.000,-222254
8.410719871520996,102011569,3.383,-9.133,-0.730,0.000,0.000,0.000,-222366
8.414952993392944,102015789,3.383,-9.133,-0.730,0.000,0.000,0.000,-222982
8.420046091079712,102021009,3.344,-9.137,-0.656,0.000,0.000,0.000,-221950
8.424146890640259,102025229,3.344,-9.137,-0.656,0.000,0.000,0.000,-222522
8.430356979370117,102031449,3.344,-9.133,-0.691,0.000,0.000,0.000,-222387
8.43563175201416,102036670,3.344,-9.133,-0.691,0.000,0.000,0.000,-221823
8.441808700561523,102042890,3.383,-9.098,-0.809,0.000,0.000,0.000,-222467
8.445028066635132,102046110,3.383,-9.098,-0.809,0.000,0.000,0.000,-222377
8.451690912246704,102052330,3.383,-9.098,-0.809,0.000,0.000,0.000,-222261
8.45746397972107,102058550,3.344,-9.133,-0.691,0.000,0.000,0.000,-222898
8.462692022323608,102063770,3.344,-9.133,-0.691,0.000,0.000,0.000,-222223
8.467972755432129,102068990,3.305,-9.133,-0.656,0.000,0.000,0.000,-222597
8.473142862319946,102074210,3.305,-9.133,-0.656,0.000,0.000,0.000,-221963
8.479423999786377,102080430,3.344,-9.098,-0.770,0.000,0.000,0.000,-222481
8.484631061553955,102085650,3.344,-9.098,-0.770,0.000,0.000,0.000,-222476
8.491809844970703,102092870,3.344,-9.098,-0.770,0.000,0.000,0.000,-223450
8.495023727416992,102096090,3.305,-9.094,-0.809,0.000,0.000,0.000,-222704
8.499348878860474,102100310,3.305,-9.137,-0.691,0.000,0.000,0.000,-222399
8.506690979003906,102107530,3.305,-9.137,-0.691,0.000,0.000,0.000,-222839
8.512905836105347,102113750,3.305,-9.137,-0.691,0.000,0.000,0.000,-222592
8.517941951751709,102118970,3.422,-9.098,-0.691,0.000,0.000,0.000,-222433
8.522116661071777,102123191,3.344,-9.059,-0.691,0.000,0.000,0.000,-222505
8.526343822479248,102127412,3.344,-9.059,-0.691,0.000,0.000,0.000,-223349
8.532817840576172,102133632,3.305,-9.094,-0.770,0.000,0.000,0.000,-222022
8.536872863769531,102137852,3.305,-9.094,-0.770,0.000,0.000,0.000,-222642
8.541265726089478,102142072,3.344,-9.059,-0.730,0.000,0.000,0.000,-222798
8.545540809631348,102146292,3.344,-9.059,-0.730,0.000,0.000,0.000,-222303
8.551774978637695,102152512,3.344,-9.133,-0.691,0.000,0.000,0.000,-222248
8.556666135787964,102157732,3.344,-9.133,-0.691,0.000,0.000,0.000,-223291
8.562005996704102,102162952,3.305,-9.094,-0.656,0.000,0.000,0.000,-222595
8.567126035690308,102168172,3.305,-9.094,-0.656,0.000,0.000,0.000,-222923
8.573563814163208,102174392,3.305,-9.094,-0.656,0.000,0.000,0.000,-223499
8.57895803451538,102179612,3.344,-9.133,-0.691,0.000,0.000,0.000,-223153
8.583069801330566,102183833,3.344,-9.133,-0.691,0.000,0.000,0.000,-222926
8.586911916732788,102188054,3.344,-9.055,-0.770,0.000,0.000,0.000,-223006
8.59324598312378,102194274,3.344,-9.055,-0.770,0.000,0.000,0.000,-222212
8.597475051879883,102198494,3.344,-9.133,-0.691,0.000,0.000,0.000,-222053
8.601762056350708,102202715,3.305,-9.133,-0.656,0.000,0.000,0.000,-221626
8.606085777282715,102206935,3.305,-9.133,-0.656,0.000,0.000,0.000,-222945
8.613308906555176,102214155,3.305,-9.098,-0.691,0.000,0.000,0.000,-223028
8.617502927780151,102218375,3.305,-9.098,-0.691,0.000,0.000,0.000,-222164
8.622493982315063,102223595,3.344,-9.098,-0.770,0.000,0.000,0.000,-222872
8.627684116363525,102228816,3.344,-9.098,-0.770,0.000,0.000,0.000,-222598
8.634898900985718,102236037,3.344,-9.098,-0.770,0.000,0.000,0.000,-222709
8.638170003890991,102239257,3.305,-9.094,-0.770,0.000,0.000,0.000,-221484
8.643404960632324,102244477,3.305,-9.094,-0.770,0.000,0.000,0.000,-222071
8.64760684967041,102248697,3.383,-9.094,-0.691,0.000,0.000,0.000,-222538
8.652902841567993,102253917,3.344,-9.094,-0.691,0.000,0.000,0.000,-222158
8.658097743988037,102259137,3.344,-9.094,-0.691,0.000,0.000,0.000,-222259
8.664293766021729,102265357,3.383,-9.094,-0.691,0.000,0.000,0.000,-222328
8.667475938796997,102268577,3.383,-9.094,-0.691,0.000,0.000,0.000,-222591
8.674837827682495,102275797,3.383,-9.094,-0.691,0.000,0.000,0.000,-222535
8.682949781417847,102283019,3.344,-9.094,-0.691,0.000,0.000,0.000,-221291
8.687105894088745,102288239,3.344,-9.094,-0.691,0.000,0.000,0.000,-222075
8.693387031555176,102294459,3.344,-9.094,-0.691,0.000,0.000,0.000,-222982
8.698761940002441,102299679,3.305,-9.098,-0.730,0.000,0.000,0.000,-221681
8.704051971435547,102304899,3.305,-9.098,-0.730,0.000,0.000,0.000,-222933
8.709274053573608,102310119,3.344,-9.133,-0.730,0.000,0.000,0.000,-223040
8.713575839996338,102314339,3.344,-9.133,-0.730,0.000,0.000,0.000,-221561
8.719016790390015,102319560,3.266,-9.098,-0.691,0.000,0.000,0.000,-222509
8.723686933517456,102324780,3.266,-9.098,-0.691,0.000,0.000,0.000,-223139
8.729006052017212,102330000,3.383,-9.094,-0.691,0.000,0.000,0.000,-222123
8.734202861785889,102335220,3.383,-9.094,-0.691,0.000,0.000,0.000,-222394
8.740431070327759,102341440,3.344,-9.094,-0.730,0.000,0.000,0.000,-223308
8.744664907455444,102345660,3.344,-9.094,-0.730,0.000,0.000,0.000,-222651
8.751016855239868,102350880,3.344,-9.094,-0.730,0.000,0.000,0.000,-221908
8.758046865463257,102359100,3.344,-9.094,-0.730,0.000,0.000,0.000,-222388
8.765410900115967,102366320,3.344,-9.094,-0.730,0.000,0.000,0.000,-221734
8.768570899963379,102369540,3.305,-9.098,-0.730,0.000,0.000,0.000,-222361
8.773969888687134,102374760,3.305,-9.098,-0.730,0.000,0.000,0.000,-223996
8.779119729995728,102379980,3.344,-9.133,-0.730,0.000,0.000,0.000,-221957
8.784177780151367,102385200,3.344,-9.133,-0.730,0.000,0.000,0.000,-222480
8.788294792175293,102389420,3.344,-9.137,-0.770,0.000,0.000,0.000,-222818
8.794684886932373,102395640,3.344,-9.137,-0.770,0.000,0.000,0.000,-222753
8.800896883010864,102401860,3.305,-9.137,-0.730,0.000,0.000,0.000,-222225
8.806221961975098,102407080,3.305,-9.137,-0.730,0.000,0.000,0.000,-222544
8.814466953277588,102415300,3.305,-9.137,-0.730,0.000,0.000,0.000,-222490
8.81873083114624,102419520,3.305,-9.094,-0.656,0.000,0.000,0.000,-222305
8.823631048202515,102424742,3.305,-9.094,-0.656,0.000,0.000,0.000,-222497
8.828908920288086,102429962,3.383,-9.176,-0.730,0.000,0.000,0.000,-222018
8.834122896194458,102435182,3.383,-9.176,-0.730,0.000,0.000,0.000,-222774
8.83934473991394,102440402,3.305,-9.055,-0.730,0.000,0.000,0.000,-223017
8.844647884368896,102445622,3.305,-9.055,-0.730,0.000,0.000,0.000,-222335
8.849778890609741,102450842,3.383,-9.094,-0.730,0.000,0.000,0.000,-221815
8.855997800827026,102457062,3.383,-9.094,-0.730,0.000,0.000,0.000,-223528
8.863226890563965,102464282,3.344,-9.098,-0.656,0.000,0.000,0.000,-222816
8.868507862091064,102469502,3.344,-9.098,-0.656,0.000,0.000,0.000,-222530
8.87467885017395,102475722,3.344,-9.098,-0.656,0.000,0.000,0.000,-222412
8.879961013793945,102480942,3.344,-9.133,-0.730,0.000,0.000,0.000,-222089
8.885076999664307,102486162,3.344,-9.133,-0.730,0.000,0.000,0.000,-222767
8.892656803131104,102493382,3.344,-9.098,-0.770,0.000,0.000,0.000,-222670
8.896605968475342,102497602,3.344,-9.098,-0.770,0.000,0.000,0.000,-222654
8.90197491645813,102502822,3.344,-9.137,-0.617,0.000,0.000,0.000,-222664
8.907204866409302,102508042,3.344,-9.137,-0.617,0.000,0.000,0.000,-223365
8.914443969726562,102515262,3.344,-9.137,-0.617,0.000,0.000,0.000,-222109
8.91769790649414,102518482,3.344,-9.098,-0.656,0.000,0.000,0.000,-222042
8.921596765518188,102522702,3.344,-9.133,-0.730,0.000,0.000,0.000,-222809
8.925847053527832,102526922,3.344,-9.133,-0.730,0.000,0.000,0.000,-222225
8.933148860931396,102534142,3.344,-9.098,-0.770,0.000,0.000,0.000,-221959
8.936293125152588,102537362,3.344,-9.098,-0.770,0.000,0.000,0.000,-222665
8.941532850265503,102542582,3.305,-9.133,-0.656,0.000,0.000,0.000,-222974
8.945712804794312,102546802,3.305,-9.133,-0.656,0.000,0.000,0.000,-222096
8.952218770980835,102553022,3.383,-9.133,-0.691,0.000,0.000,0.000,-222430
8.956182956695557,102557242,3.383,-9.133,-0.691,0.000,0.000,0.000,-222828
8.96141266822815,102562462,3.344,-9.094,-0.730,0.000,0.000,0.000,-222289
8.966746807098389,102567682,3.344,-9.094,-0.730,0.000,0.000,0.000,-223067
8.975106954574585,102575902,3.383,-9.094,-0.730,0.000,0.000,0.000,-223132
8.97829794883728,102579122,3.383,-9.094,-0.730,0.000,0.000,0.000,-222115
8.98473596572876,102585342,3.383,-9.094,-0.730,0.000,0.000,0.000,-221721
8.988492012023926,102589562,3.344,-9.133,-0.730,0.000,0.000,0.000,-222343
8.992697954177856,102593782,3.344,-9.094,-0.730,0.000,0.000,0.000,-222874
8.997157096862793,102598002,3.344,-9.094,-0.730,0.000,0.000,0.000,-222768
9.002184867858887,102603222,3.383,-9.133,-0.730,0.000,0.000,0.000,-221748
9.008771896362305,102609442,3.383,-9.133,-0.730,0.000,0.000,0.000,-222074
9.015816926956177,102616662,3.383,-9.133,-0.730,0.000,0.000,0.000,-222501
9.019908666610718,102620882,3.383,-9.094,-0.730,0.000,0.000,0.000,-223340
9.024987936019897,102626102,3.383,-9.094,-0.730,0.000,0.000,0.000,-222805
9.031262874603271,102632322,3.383,-9.098,-0.770,0.000,0.000,0.000,-222764
9.03547477722168,102636542,3.383,-9.098,-0.770,0.000,0.000,0.000,-222177
9.040623903274536,102641762,3.344,-9.055,-0.770,0.000,0.000,0.000,-222336
9.045893907546997,102646982,3.344,-9.055,-0.770,0.000,0.000,0.000,-222622
9.05318284034729,102654202,3.305,-9.098,-0.691,0.000,0.000,0.000,-222870
9.056293725967407,102657422,3.305,-9.098,-0.691,0.000,0.000,0.000,-223495
9.061562061309814,102662642,3.344,-9.094,-0.730,0.000,0.000,0.000,-221885
9.066918849945068,102667862,3.344,-9.094,-0.730,0.000,0.000,0.000,-222608
9.075246095657349,102676082,3.344,-9.137,-0.770,0.000,0.000,0.000,-223097
9.078799724578857,102679302,3.344,-9.137,-0.770,0.000,0.000,0.000,-222274
9.08456802368164,102684522,3.344,-9.098,-0.770,0.000,0.000,0.000,-222950
9.08765983581543,102688742,3.344,-9.098,-0.770,0.000,0.000,0.000,-222684
9.094907760620117,102695962,3.344,-9.094,-0.730,0.000,0.000,0.000,-223084
9.09821891784668,102699182,3.344,-9.094,-0.730,0.000,0.000,0.000,-222818
9.104574918746948,102705402,3.344,-9.094,-0.730,0.000,0.000,0.000,-222611
9.108789920806885,102709622,3.383,-9.137,-0.656,0.000,0.000,0.000,-222328
9.11500096321106,102715842,3.383,-9.137,-0.656,0.000,0.000,0.000,-222091
9.119089841842651,102720062,3.344,-9.094,-0.730,0.000,0.000,0.000,-223095
9.123203992843628,102724282,3.344,-9.098,-0.770,0.000,0.000,0.000,-222305
9.127464771270752,102728502,3.344,-9.098,-0.770,0.000,0.000,0.000,-222278
9.134732961654663,102735722,3.383,-9.094,-0.730,0.000,0.000,0.000,-222468
9.139944791793823,102740942,3.383,-9.094,-0.730,0.000,0.000,0.000,-223364
9.14622187614441,102747162,3.344,-9.059,-0.691,0.000,0.000,0.000,-223113
9.150548934936523,102750382,3.344,-9.059,-0.691,0.000,0.000,0.000,-221696
9.156557083129883,102757602,3.344,-9.059,-0.691,0.000,0.000,0.000,-223089
9.162004947662354,102762822,3.344,-9.133,-0.691,0.000,0.000,0.000,-222650
9.166034936904907,102767042,3.344,-9.133,-0.691,0.000,0.000,0.000,-222295
9.171884059906006,102772262,3.383,-9.098,-0.770,0.000,0.000,0.000,-221849
9.176640033721924,102777482,3.383,-9.098,-0.770,0.000,0.000,0.000,-223809
9.181948900222778,102782702,3.344,-9.094,-0.730,0.000,0.000,0.000,-222650
9.186805963516235,102787922,3.344,-9.094,-0.730,0.000,0.000,0.000,-222476
9.192091703414917,102793142,3.344,-9.094,-0.691,0.000,0.000,0.000,-222553
9.197255849838257,102798362,3.344,-9.094,-0.691,0.000,0.000,0.000,-222260
9.203446865081787,102804582,3.383,-9.094,-0.691,0.000,0.000,0.000,-222926
9.207761764526367,102808802,3.383,-9.094,-0.691,0.000,0.000,0.000,-222457
9.213963985443115,102815022,3.305,-9.137,-0.691,0.000,0.000,0.000,-222625
9.218142986297607,102819242,3.305,-9.137,-0.691,0.000,0.000,0.000,-222449
9.22335696220398,102824462,3.305,-9.098,-0.730,0.000,0.000,0.000,-223167
9.228602886199951,102829682,3.305,-9.098,-0.730,0.000,0.000,0.000,-222247
9.234827995300293,102835902,3.344,-9.098,-0.770,0.000,0.000,0.000,-222760
9.240012884140015,102841122,3.344,-9.098,-0.770,0.000,0.000,0.000,-223417
9.246266841888428,102847342,3.344,-9.094,-0.730,0.000,0.000,0.000,-222834
9.249474048614502,102850562,3.344,-9.094,-0.730,0.000,0.000,0.000,-221980
9.255705118179321,102856782,3.305,-9.098,-0.691,0.000,0.000,0.000,-223417
9.261954069137573,102863004,3.305,-9.098,-0.691,0.000,0.000,0.000,-222860
9.268151998519897,102869224,3.344,-9.094,-0.691,0.000,0.000,0.000,-221672
9.27139401435852,102872444,3.344,-9.094,-0.691,0.000,0.000,0.000,-222113
9.277781009674072,102878664,3.344,-9.094,-0.691,0.000,0.000,0.000,-222907
9.2828049659729,102883884,3.305,-9.098,-0.848,0.000,0.000,0.000,-223073
9.288047790527344,102889104,3.305,-9.098,-0.848,0.000,0.000,0.000,-223128
9.293298959732056,102894324,3.344,-9.094,-0.691,0.000,0.000,0.000,-222597
9.298500776290894,102899544,3.344,-9.094,-0.691,0.000,0.000,0.000,-222216
9.304756879806519,102905764,3.344,-9.137,-0.617,0.000,0.000,0.000,-223237
9.309001922607422,102909984,3.344,-9.137,-0.617,0.000,0.000,0.000,-222384
9.316285848617554,102917204,3.266,-9.098,-0.730,0.000,0.000,0.000,-222460
9.321381092071533,102922424,3.266,-9.098,-0.730,0.000,0.000,0.000,-222351
9.326627969741821,102927644,3.266,-9.098,-0.730,0.000,0.000,0.000,-222796
9.330920934677124,102931864,3.305,-9.098,-0.691,0.000,0.000,0.000,-222279
9.337233781814575,102938084,3.305,-9.098,-0.691,0.000,0.000,0.000,-222919
9.341514825820923,102942304,3.344,-9.133,-0.691,0.000,0.000,0.000,-222424
9.345782995223999,102946524,3.383,-9.137,-0.656,0.000,0.000,0.000,-221903
9.35081696510315,102950744,3.383,-9.137,-0.656,0.000,0.000,0.000,-222746
9.355888843536377,102956964,3.305,-9.094,-0.656,0.000,0.000,0.000,-222754
9.360122680664062,102961184,3.305,-9.094,-0.656,0.000,0.000,0.000,-221982
9.365348100662231,102966404,3.305,-9.094,-0.770,0.000,0.000,0.000,-221918
9.369563817977905,102970624,3.305,-9.094,-0.770,0.000,0.000,0.000,-222414
9.37588882446289,102976844,3.305,-9.094,-0.770,0.000,0.000,0.000,-223106
9.380419969558716,102981064,3.305,-9.094,-0.770,0.000,0.000,0.000,-222079
9.385544776916504,102986284,3.305,-9.055,-0.691,0.000,0.000,0.000,-222957
9.390427827835083,102991504,3.305,-9.055,-0.691,0.000,0.000,0.000,-222461
9.3977689743042,102998724,3.305,-9.055,-0.691,0.000,0.000,0.000,-222596
9.401978015899658,103002944,3.344,-9.137,-0.770,0.000,0.000,0.000,-221769
9.407355785369873,103008164,3.344,-9.137,-0.770,0.000,0.000,0.000,-222719
9.411588668823242,103012384,3.344,-9.094,-0.730,0.000,0.000,0.000,-222874
9.417503833770752,103018604,3.344,-9.094,-0.730,0.000,0.000,0.000,-222108
9.42272400856018,103023824,3.344,-9.094,-0.730,0.000,0.000,0.000,-223221
9.42799997329712,103029044,3.344,-9.094,-0.730,0.000,0.000,0.000,-222583
9.434218883514404,103035264,3.344,-9.133,-0.730,0.000,0.000,0.000,-221651
9.43940782546997,103040484,3.344,-9.133,-0.730,0.000,0.000,0.000,-222748
9.445812940597534,103046704,3.344,-9.137,-0.656,0.000,0.000,0.000,-222841
9.450114011764526,103050924,3.344,-9.137,-0.656,0.000,0.000,0.000,-222427
9.45710301399231,103058144,3.383,-9.176,-0.730,0.000,0.000,0.000,-223792
9.460283756256104,103061364,3.383,-9.176,-0.730,0.000,0.000,0.000,-222600
9.46552586555481,103066584,3.305,-9.055,-0.730,0.000,0.000,0.000,-222740
9.46970272064209,103070805,3.305,-9.055,-0.730,0.000,0.000,0.000,-222824
9.477007865905762,103078025,3.383,-9.098,-0.770,0.000,0.000,0.000,-222534
9.482394695281982,103083245,3.383,-9.098,-0.770,0.000,0.000,0.000,-222242
9.488340854644775,103089465,3.383,-9.098,-0.770,0.000,0.000,0.000,-223076
9.49370789527893,103094685,3.344,-9.094,-0.691,0.000,0.000,0.000,-222707
9.497900009155273,103098905,3.344,-9.094,-0.691,0.000,0.000,0.000,-222009
9.504303693771362,103105125,3.305,-9.098,-0.691,0.000,0.000,0.000,-222625
9.51121187210083,103112345,3.305,-9.098,-0.691,0.000,0.000,0.000,-222194
9.519635915756226,103120565,3.305,-9.094,-0.770,0.000,0.000,0.000,-221989
9.522702932357788,103123785,3.305,-9.094,-0.770,0.000,0.000,0.000,-223541
9.52899980545044,103130007,3.305,-9.094,-0.770,0.000,0.000,0.000,-222937
9.53526496887207,103136227,3.344,-9.094,-0.691,0.000,0.000,0.000,-222084
9.539608001708984,103140447,3.344,-9.094,-0.691,0.000,0.000,0.000,-222659
9.544847011566162,103145667,3.344,-9.133,-0.691,0.000,0.000,0.000,-222592
9.550789833068848,103150887,3.344,-9.133,-0.691,0.000,0.000,0.000,-222512
9.556045055389404,103157107,3.305,-9.137,-0.691,0.000,0.000,0.000,-221971
9.56027889251709,103161327,3.305,-9.137,-0.691,0.000,0.000,0.000,-223175
9.565593004226685,103166547,3.344,-9.094,-0.691,0.000,0.000,0.000,-222673
9.57091498374939,103171767,3.344,-9.094,-0.691,0.000,0.000,0.000,-222746
9.577145099639893,103177987,3.344,-9.098,-0.770,0.000,0.000,0.000,-222305
9.58241891860962,103183207,3.344,-9.098,-0.770,0.000,0.000,0.000,-222025
9.588414907455444,103189427,3.344,-9.098,-0.770,0.000,0.000,0.000,-222801
9.592602729797363,103193647,3.344,-9.094,-0.691,0.000,0.000,0.000,-222395
9.598948955535889,103199867,3.344,-9.094,-0.691,0.000,0.000,0.000,-222991
9.603286981582642,103204087,3.344,-9.137,-0.770,0.000,0.000,0.000,-222571
9.608529806137085,103209307,3.344,-9.137,-0.770,0.000,0.000,0.000,-223581
9.613687992095947,103214529,3.344,-9.133,-0.730,0.000,0.000,0.000,-222622
9.619099855422974,103219750,3.344,-9.133,-0.730,0.000,0.000,0.000,-223135
9.624900102615356,103225970,3.344,-9.055,-0.770,0.000,0.000,0.000,-222680
9.629138946533203,103230191,3.344,-9.055,-0.770,0.000,0.000,0.000,-222084
9.634382963180542,103235411,3.305,-9.137,-0.691,0.000,0.000,0.000,-222261
9.639561891555786,103240631,3.305,-9.137,-0.691,0.000,0.000,0.000,-223005
9.645869970321655,103246851,3.344,-9.059,-0.730,0.000,0.000,0.000,-222068
9.651022911071777,103252071,3.344,-9.059,-0.730,0.000,0.000,0.000,-222532
9.658224821090698,103259291,3.344,-9.133,-0.730,0.000,0.000,0.000,-222760
9.663461685180664,103264511,3.344,-9.133,-0.730,0.000,0.000,0.000,-222566
9.669780969619751,103270731,3.344,-9.133,-0.730,0.000,0.000,0.000,-223509
9.674931764602661,103275951,3.344,-9.098,-0.770,0.000,0.000,0.000,-221938
9.679200887680054,103280171,3.344,-9.098,-0.770,0.000,0.000,0.000,-222522
9.684441089630127,103285391,3.344,-9.094,-0.730,0.000,0.000,0.000,-221708
9.688617944717407,103289611,3.344,-9.094,-0.730,0.000,0.000,0.000,-222511
9.693917751312256,103294831,3.344,-9.176,-0.691,0.000,0.000,0.000,-222873
9.699047803878784,103300051,3.344,-9.176,-0.691,0.000,0.000,0.000,-222021
9.705475091934204,103306271,3.344,-9.137,-0.617,0.000,0.000,0.000,-223155
9.71067190170288,103311491,3.344,-9.137,-0.617,0.000,0.000,0.000,-222481
9.718908786773682,103319711,3.344,-9.137,-0.617,0.000,0.000,0.000,-222513
9.72287106513977,103323931,3.344,-9.098,-0.883,0.000,0.000,0.000,-222591
9.728065013885498,103329151,3.344,-9.098,-0.883,0.000,0.000,0.000,-223093
9.733426809310913,103334371,3.305,-9.137,-0.730,0.000,0.000,0.000,-222836
9.738770961761475,103339591,3.305,-9.137,-0.730,0.000,0.000,0.000,-223216
9.745012998580933,103345811,3.383,-9.133,-0.691,0.000,0.000,0.000,-223509
9.749197006225586,103350031,3.383,-9.133,-0.691,0.000,0.000,0.000,-221588
9.754223823547363,103355251,3.344,-9.133,-0.691,0.000,0.000,0.000,-222703
9.759437084197998,103360471,3.344,-9.133,-0.691,0.000,0.000,0.000,-222840
9.765815019607544,103366691,3.383,-9.094,-0.730,0.000,0.000,0.000,-222553
9.773067951202393,103373911,3.383,-9.094,-0.730,0.000,0.000,0.000,-222548
9.779303789138794,103380131,3.383,-9.094,-0.730,0.000,0.000,0.000,-222338
9.784595966339111,103385351,3.344,-9.094,-0.691,0.000,0.000,0.000,-221725
9.78954291343689,103390571,3.344,-9.094,-0.691,0.000,0.000,0.000,-222610
9.794727802276611,103395791,3.344,-9.094,-0.691,0.000,0.000,0.000,-222316
9.798968076705933,103400011,3.344,-9.094,-0.691,0.000,0.000,0.000,-222673
9.804165840148926,103405231,3.344,-9.094,-0.730,0.000,0.000,0.000,-222496
9.809422969818115,103410451,3.344,-9.094,-0.730,0.000,0.000,0.000,-223358
9.814591884613037,103415671,3.305,-9.133,-0.809,0.000,0.000,0.000,-221792
9.819860935211182,103420891,3.305,-9.133,-0.809,0.000,0.000,0.000,-222087
9.826040029525757,103427111,3.344,-9.094,-0.730,0.000,0.000,0.000,-223276
9.830265045166016,103431331,3.344,-9.094,-0.730,0.000,0.000,0.000,-222265
9.83652400970459,103437551,3.344,-9.133,-0.730,0.000,0.000,0.000,-222887
9.840688705444336,103441771,3.344,-9.133,-0.730,0.000,0.000,0.000,-222439
9.846014976501465,103446991,3.344,-9.133,-0.691,0.000,0.000,0.000,-222641
9.851178884506226,103452211,3.344,-9.133,-0.691,0.000,0.000,0.000,-221714
9.857382774353027,103458431,3.344,-9.098,-0.770,0.000,0.000,0.000,-223198
9.861666917800903,103462651,3.344,-9.098,-0.770,0.000,0.000,0.000,-222448
9.866873025894165,103467872,3.344,-9.098,-0.770,0.000,0.000,0.000,-222413
9.872035026550293,103473092,3.344,-9.098,-0.770,0.000,0.000,0.000,-222341
9.87956976890564,103480312,3.344,-9.098,-0.770,0.000,0.000,0.000,-222605
9.883760929107666,103484532,3.344,-9.176,-0.691,0.000,0.000,0.000,-222635
9.888633012771606,103489752,3.344,-9.176,-0.691,0.000,0.000,0.000,-222201
9.892989873886108,103493972,3.383,-9.098,-0.656,0.000,0.000,0.000,-222618
9.899182081222534,103500192,3.383,-9.098,-0.656,0.000,0.000,0.000,-222890
9.904462099075317,103505412,3.305,-9.055,-0.730,0.000,0.000,0.000,-222453
9.909862756729126,103510632,3.305,-9.055,-0.730,0.000,0.000,0.000,-222746
9.915040016174316,103515852,3.344,-9.133,-0.730,0.000,0.000,0.000,-222117
9.919180870056152,103520072,3.344,-9.133,-0.730,0.000,0.000,0.000,-222055
9.92422080039978,103525292,3.383,-9.094,-0.691,0.000,0.000,0.000,-223775
9.92943000793457,103530512,3.383,-9.094,-0.691,0.000,0.000,0.000,-222185
9.934676885604858,103535732,3.344,-9.094,-0.730,0.000,0.000,0.000,-222620
9.939933776855469,103540952,3.344,-9.094,-0.730,0.000,0.000,0.000,-223489
9.946135997772217,103547172,3.344,-9.059,-0.730,0.000,0.000,0.000,-222349
9.95035696029663,103551392,3.344,-9.059,-0.730,0.000,0.000,0.000,-223006
9.955527782440186,103556612,3.344,-9.094,-0.730,0.000,0.000,0.000,-223398
9.960716009140015,103561832,3.344,-9.094,-0.730,0.000,0.000,0.000,-223068
9.96701192855835,103568052,3.344,-9.094,-0.730,0.000,0.000,0.000,-222755
9.971226692199707,103572272,3.344,-9.094,-0.730,0.000,0.000,0.000,-222249
9.977604866027832,103578492,3.344,-9.055,-0.770,0.000,0.000,0.000,-222793
9.983799934387207,103583712,3.344,-9.055,-0.770,0.000,0.000,0.000,-222407
9.987815856933594,103588932,3.383,-9.094,-0.730,0.000,0.000,0.000,-222804
9.993114709854126,103594152,3.383,-9.094,-0.730,0.000,0.000,0.000,-222741
9.9993257522583,103600372,3.383,-9.094,-0.730,0.000,0.000,0.000,-221953
10.004760980606079,103605592,3.383,-9.137,-0.617,0.000,0.000,0.000,-222343
10.00998592376709,103610812,3.383,-9.137,-0.617,0.000,0.000,0.000,-222321
10.015213012695312,103616032,3.344,-9.094,-0.691,0.000,0.000,0.000,-222375
10.022129774093628,103623252,3.344,-9.094,-0.691,0.000,0.000,0.000,-223194
10.028416872024536,103629472,3.344,-9.133,-0.730,0.000,0.000,0.000,-222751
