pc_time_s,teensy_time_us,ax,ay,az,gx,gy,gz,load_raw
2.233606667,105542572,3.305,-9.133,-0.656,0.000,0.000,0.000,-223708
2.23368375,105544879,3.266,-9.176,-0.617,0.000,0.000,0.000,-223624
2.233770209,105548116,3.266,-9.176,-0.617,0.000,0.000,0.000,-222284
2.233844959,105550336,3.266,-9.176,-0.617,0.018,0.008,-0.002,-222124
2.235297959,105554557,3.266,-9.176,-0.617,0.020,-0.004,0.000,-222813
2.26689575,105558778,3.266,-9.176,-0.617,0.004,0.006,0.000,-223462
2.266969292,105563998,3.266,-9.176,-0.617,0.002,0.002,0.004,-221561
2.267042875,105568219,3.305,-9.137,-0.691,0.002,0.002,0.004,-222697
2.267118584,105571440,3.305,-9.137,-0.691,0.002,0.002,0.012,-222345
2.267192167,105577661,3.305,-9.137,-0.691,0.006,-0.006,-0.008,-223052
2.267266375,105581882,3.305,-9.137,-0.691,0.004,-0.002,-0.006,-221828
2.267339584,105586103,3.305,-9.137,-0.691,0.016,-0.002,-0.004,-222572
2.271998167,105591324,3.305,-9.137,-0.691,-0.002,-0.004,0.002,-223182
2.300220542,105595545,3.305,-9.137,-0.691,-0.016,0.000,0.004,-223313
2.300302375,105599766,3.227,-9.172,-0.617,-0.016,0.000,0.004,-222246
2.300383584,105601987,3.227,-9.172,-0.617,-0.004,0.008,0.002,-222855
2.30046975,105607208,3.227,-9.172,-0.617,-0.006,-0.010,0.006,-223038
2.30054275,105611429,3.227,-9.172,-0.617,-0.008,0.006,0.000,-222751
2.300613667,105614650,3.227,-9.172,-0.617,0.004,0.000,0.004,-222767
2.300684834,105619871,3.227,-9.172,-0.617,0.004,0.006,0.002,-222777
2.305743709,105625092,3.227,-9.172,-0.617,0.014,-0.004,-0.008,-223475
2.333558084,105630313,3.227,-9.133,-0.691,0.014,-0.004,-0.008,-223356
2.333636542,105633534,3.227,-9.133,-0.691,0.002,0.004,-0.004,-221646
2.333712334,105638755,3.227,-9.133,-0.691,-0.006,-0.006,-0.008,-222618
2.33378875,105643976,3.227,-9.133,-0.691,-0.010,-0.004,0.004,-223198
2.333860959,105648197,3.227,-9.133,-0.691,0.014,0.000,0.000,-222602
2.33394175,105652418,3.227,-9.133,-0.691,-0.004,0.016,0.006,-222562
2.337367709,105656639,3.227,-9.133,-0.691,-0.004,-0.002,0.010,-224340
2.366935584,105661860,3.266,-9.133,-0.578,-0.004,-0.002,0.010,-221554
2.367012959,105665081,3.266,-9.133,-0.578,-0.010,0.004,-0.004,-222313
2.367085417,105670302,3.266,-9.133,-0.578,0.008,0.000,0.008,-222863
2.367160459,105675523,3.266,-9.133,-0.578,0.002,-0.004,-0.008,-223180
2.367240667,105679746,3.266,-9.133,-0.578,0.004,-0.004,0.012,-222486
2.367318834,105684967,3.266,-9.133,-0.578,0.000,-0.004,0.000,-222687
2.37098925,105690188,3.266,-9.133,-0.578,-0.006,0.006,0.004,-222313
2.400208542,105695409,3.227,-9.137,-0.539,-0.006,0.006,0.004,-221828
2.400283042,105697630,3.227,-9.137,-0.539,0.006,0.002,0.000,-223159
2.400358834,105702851,3.227,-9.137,-0.539,0.006,-0.004,-0.002,-222467
2.400439834,105707072,3.227,-9.137,-0.539,-0.004,0.010,0.018,-222953
2.400526667,105712293,3.227,-9.137,-0.539,0.006,-0.002,-0.002,-223012
2.400613625,105716514,3.227,-9.137,-0.539,-0.004,0.006,0.006,-221839
2.402476875,105721735,3.227,-9.098,-0.617,-0.004,0.006,0.006,-222967
2.405760459,105724956,3.227,-9.098,-0.617,-0.008,0.010,0.000,-222193
2.433555334,105731179,3.227,-9.098,-0.617,0.002,-0.002,0.012,-223058
2.433631959,105735399,3.227,-9.098,-0.617,-0.010,-0.004,-0.014,-222655
2.433706959,105740620,3.227,-9.098,-0.617,-0.004,0.000,-0.004,-222716
2.433797834,105745841,3.227,-9.098,-0.617,0.004,0.004,0.006,-223117
2.433871792,105751062,3.227,-9.098,-0.617,0.014,-0.002,0.006,-221511
2.436009167,105755283,3.305,-9.176,-0.578,0.014,-0.002,0.006,-222173
2.439150334,105758504,3.305,-9.176,-0.578,0.004,-0.004,0.000,-223088
2.466868709,105764725,3.305,-9.176,-0.578,-0.006,0.004,-0.002,-222686
2.466943,105768946,3.305,-9.176,-0.578,-0.004,-0.008,0.016,-223538
2.46701575,105773167,3.305,-9.176,-0.578,0.006,0.000,-0.008,-222287
2.467087625,105778388,3.305,-9.176,-0.578,0.002,0.000,-0.010,-222523
2.467159584,105783609,3.305,-9.176,-0.578,0.008,-0.006,0.006,-221930
2.468573584,105787830,3.266,-9.133,-0.656,0.008,-0.006,0.006,-222131
2.471881834,105791051,3.266,-9.133,-0.656,0.002,0.000,0.000,-222874
2.500253417,105796272,3.266,-9.133,-0.656,-0.002,-0.006,0.000,-222667
2.500326,105800493,3.266,-9.133,-0.656,0.002,0.004,0.002,-222725
2.50039875,105805714,3.266,-9.133,-0.656,0.004,-0.004,0.016,-222837
2.500472834,105809935,3.266,-9.133,-0.656,0.000,0.000,-0.010,-223072
2.500546084,105814156,3.266,-9.133,-0.656,-0.004,0.004,0.010,-222677
2.500624542,105817378,3.266,-9.176,-0.617,-0.004,0.004,0.010,-222090
2.500700125,105819599,3.266,-9.176,-0.617,0.016,-0.004,-0.006,-222780
2.505605042,105824820,3.266,-9.176,-0.617,-0.004,0.004,-0.002,-222384
2.533572959,105829041,3.266,-9.176,-0.617,0.000,0.004,0.000,-223256
2.533658459,105833262,3.266,-9.176,-0.617,-0.004,0.000,-0.006,-222139
2.533750209,105837483,3.266,-9.176,-0.617,0.002,0.010,0.006,-222674
2.533822709,105842704,3.266,-9.133,-0.539,0.002,0.010,0.006,-222852
2.533903375,105844925,3.266,-9.133,-0.539,-0.004,-0.004,-0.002,-222775
2.533986209,105849146,3.266,-9.133,-0.539,-0.008,0.000,-0.002,-222576
2.534074584,105853367,3.266,-9.133,-0.539,0.008,0.000,0.006,-222755
2.566832,105857588,3.266,-9.133,-0.539,-0.002,0.002,0.004,-222865
2.566908292,105862809,3.266,-9.133,-0.539,-0.002,-0.004,0.014,-222464
2.566988,105867030,3.266,-9.133,-0.539,0.004,-0.004,-0.002,-222816
2.567062375,105871251,3.266,-9.133,-0.656,0.004,-0.004,-0.002,-222685
2.567138334,105874472,3.266,-9.133,-0.656,0.002,-0.002,-0.010,-223063
2.567212334,105879693,3.266,-9.133,-0.656,0.010,-0.002,0.000,-223049
2.567290209,105884914,3.266,-9.133,-0.656,-0.010,0.006,0.010,-222122
2.569860542,105889135,3.266,-9.133,-0.656,-0.008,0.000,0.002,-222232
2.600235625,105894356,3.266,-9.133,-0.656,0.002,0.000,0.002,-222555
2.600308542,105898576,3.266,-9.133,-0.656,0.014,-0.002,0.012,-222977
2.60038175,105903797,3.266,-9.133,-0.578,0.014,-0.002,0.012,-222966
2.600459792,105907018,3.266,-9.133,-0.578,-0.004,-0.004,0.004,-222245
2.600533584,105912239,3.266,-9.133,-0.578,0.008,-0.002,0.004,-222781
2.600610625,105916460,3.266,-9.133,-0.578,-0.004,-0.006,-0.004,-222205
2.601349959,105920681,3.266,-9.133,-0.578,-0.002,-0.012,0.006,-223047
2.606647709,105925902,3.266,-9.133,-0.578,0.010,0.006,0.006,-222876
2.633592584,105930123,3.266,-9.133,-0.578,0.010,0.000,0.002,-222699
2.633666375,105934343,3.266,-9.133,-0.578,0.010,0.000,0.002,-222922
2.633742209,105937564,3.266,-9.133,-0.578,-0.006,-0.008,-0.002,-222986
2.633814292,105943785,3.266,-9.133,-0.578,0.000,0.008,0.002,-223036
2.633889834,105948006,3.266,-9.133,-0.578,0.006,-0.004,-0.002,-222914
2.633966084,105953227,3.266,-9.133,-0.578,0.012,0.006,-0.008,-222896
2.638175792,105957448,3.266,-9.133,-0.578,0.000,0.010,0.014,-222439
2.666888167,105962669,3.266,-9.133,-0.578,-0.004,0.000,0.008,-223102
2.666964959,105965890,3.266,-9.133,-0.578,-0.004,0.000,0.008,-222361
2.667039,105970111,3.266,-9.133,-0.578,-0.010,-0.002,0.000,-222332
2.667112459,105975332,3.266,-9.133,-0.539,-0.010,-0.002,0.000,-222941
2.667185,105978553,3.266,-9.133,-0.539,0.002,-0.004,0.002,-223618
2.667257917,105984774,3.266,-9.133,-0.539,0.004,0.002,-0.002,-221668
2.669717875,105988997,3.266,-9.133,-0.539,0.002,0.002,0.000,-222477
2.700229667,105992218,3.266,-9.133,-0.539,-0.010,0.006,0.002,-222984
2.700303167,105996439,3.266,-9.133,-0.539,0.006,0.000,0.014,-222262
2.700378667,106000659,3.266,-9.133,-0.539,0.002,0.000,-0.004,-222690
2.70045225,106004880,3.305,-9.133,-0.617,0.002,0.000,-0.004,-223187
2.700525709,106007101,3.305,-9.133,-0.617,-0.006,-0.006,0.014,-223037
2.700599834,106011322,3.305,-9.133,-0.617,-0.010,-0.006,0.006,-223284
2.7006735,106016543,3.305,-9.133,-0.617,0.002,-0.008,0.002,-221886
2.700746667,106019764,3.305,-9.133,-0.617,0.006,0.000,-0.006,-222852
2.705707084,106024985,3.305,-9.133,-0.617,-0.006,0.000,-0.012,-222915
2.733565084,106029206,3.305,-9.133,-0.617,-0.004,-0.008,0.010,-223144
2.733643792,106033427,3.266,-9.133,-0.578,-0.004,-0.008,0.010,-222230
2.73373125,106035648,3.266,-9.133,-0.578,0.006,0.004,0.002,-222773
2.733812625,106040869,3.266,-9.133,-0.578,0.004,0.002,0.004,-223348
2.733895709,106046090,3.266,-9.133,-0.578,-0.004,-0.004,-0.006,-222627
2.733976834,106050311,3.266,-9.133,-0.578,0.002,0.008,0.004,-222535
2.73527025,106054532,3.266,-9.133,-0.578,0.006,-0.004,-0.012,-223067
2.766906917,106059753,3.266,-9.133,-0.578,0.006,0.002,-0.004,-222909
2.76699525,106064974,3.266,-9.176,-0.656,0.006,0.002,-0.004,-222967
2.767070584,106067195,3.266,-9.176,-0.656,0.002,0.000,0.004,-222184
2.767145709,106072416,3.266,-9.176,-0.656,-0.002,0.004,-0.002,-223163
2.767221667,106076637,3.227,-9.172,-0.539,-0.002,0.004,-0.002,-222446
2.767301792,106078858,3.227,-9.172,-0.539,-0.008,0.000,0.010,-222712
2.767375917,106083079,3.227,-9.172,-0.539,-0.006,0.000,0.002,-222457
2.768128375,106087300,3.227,-9.172,-0.539,0.006,0.006,-0.010,-222048
2.772198125,106091521,3.227,-9.172,-0.539,0.006,-0.006,0.002,-223440
2.800205125,106095742,3.227,-9.172,-0.539,-0.004,-0.002,0.018,-222151
2.800281625,106100963,3.227,-9.172,-0.539,-0.004,-0.002,0.004,-222287
2.80035725,106105184,3.266,-9.133,-0.617,-0.004,-0.002,0.004,-222906
2.800432,106107405,3.266,-9.133,-0.617,-0.002,0.012,-0.004,-222683
2.800504125,106111626,3.266,-9.133,-0.617,0.002,0.002,0.004,-222980
2.800581167,106116847,3.266,-9.133,-0.617,0.004,-0.006,0.004,-221775
2.801796584,106121068,3.266,-9.133,-0.617,-0.004,0.002,-0.004,-223415
2.806978917,106126289,3.266,-9.133,-0.617,0.008,-0.006,0.004,-223835
2.833592292,106130510,3.266,-9.133,-0.617,0.008,-0.006,0.002,-222380
2.833669167,106134731,3.227,-9.137,-0.578,0.008,-0.006,0.002,-222992
2.833746417,106136937,3.227,-9.137,-0.578,0.016,-0.002,-0.010,-222992
2.833824959,106141158,3.227,-9.137,-0.578,0.010,-0.002,0.002,-223284
2.833899167,106146378,3.227,-9.137,-0.578,0.002,-0.004,0.012,-222892
2.833970875,106150599,3.227,-9.137,-0.578,0.002,0.008,0.004,-222644
2.836504625,106155820,3.227,-9.137,-0.578,-0.002,0.004,0.002,-222882
2.866882959,106160041,3.227,-9.137,-0.578,-0.004,0.004,0.006,-222743
2.86695775,106164262,3.227,-9.137,-0.617,-0.004,0.004,0.006,-222708
2.867034625,106167483,3.227,-9.137,-0.617,0.006,-0.002,-0.008,-223219
2.86710975,106173704,3.227,-9.137,-0.617,-0.004,-0.014,-0.018,-223642
2.867181542,106177925,3.227,-9.137,-0.617,0.006,0.006,0.006,-222752
2.86725425,106183146,3.227,-9.137,-0.617,-0.010,0.006,0.004,-222499
2.8680945,106187369,3.227,-9.137,-0.617,-0.016,0.000,-0.002,-221778
2.900205792,106191590,3.227,-9.137,-0.617,0.008,0.000,0.006,-222889
2.900279167,106195811,3.266,-9.137,-0.691,0.008,0.000,0.006,-222149
2.900354709,106198031,3.266,-9.137,-0.691,-0.004,-0.012,0.004,-222777
2.900431709,106203252,3.266,-9.137,-0.691,0.004,0.006,0.006,-222854
2.900507042,106207473,3.266,-9.137,-0.691,-0.010,-0.002,-0.002,-221880
2.900587792,106211694,3.266,-9.137,-0.691,-0.002,-0.002,0.006,-222436
2.900661542,106216915,3.266,-9.137,-0.691,-0.006,0.000,0.004,-222125
2.901852417,106221136,3.266,-9.137,-0.691,-0.012,-0.012,0.006,-222394
2.93358375,106226357,3.305,-9.133,-0.617,-0.012,-0.012,0.006,-222768
2.933662084,106228578,3.305,-9.133,-0.617,0.006,0.008,-0.010,-222076
2.933751917,106232799,3.305,-9.133,-0.617,0.002,0.000,0.012,-222110
2.933831834,106237022,3.305,-9.133,-0.617,0.002,-0.002,0.004,-222270
2.933911917,106242243,3.305,-9.133,-0.617,-0.002,-0.012,-0.004,-223024
2.933986292,106246464,3.305,-9.133,-0.617,0.002,-0.002,0.002,-222450
2.934080042,106250685,3.305,-9.133,-0.617,-0.008,0.004,-0.018,-222510
2.936590167,106255906,3.266,-9.133,-0.617,-0.008,0.004,-0.018,-223219
2.938901584,106258127,3.266,-9.133,-0.617,-0.008,-0.006,0.002,-223603
2.966915375,106263348,3.266,-9.133,-0.617,0.002,-0.012,0.000,-222138
2.966988209,106267568,3.266,-9.133,-0.617,0.004,0.010,0.004,-222842
2.967065042,106272789,3.266,-9.133,-0.617,-0.004,0.008,-0.012,-222488
2.967139334,106277010,3.266,-9.133,-0.617,0.002,-0.004,0.010,-223075
2.967212375,106282231,3.266,-9.133,-0.617,0.006,0.008,0.002,-223002
2.967285209,106286452,3.227,-9.172,-0.656,0.006,0.008,0.002,-222045
2.970328125,106289673,3.227,-9.172,-0.656,0.014,0.010,-0.002,-222622
3.000228,106294894,3.227,-9.172,-0.656,-0.002,0.008,0.004,-223228
3.000312917,106299115,3.227,-9.172,-0.656,0.002,0.002,-0.006,-222361
3.000387542,106305336,3.227,-9.172,-0.656,0.004,-0.004,-0.010,-222511
3.000463375,106310557,3.227,-9.172,-0.656,0.002,-0.006,-0.008,-223436
3.000537459,106313778,3.227,-9.172,-0.578,0.002,-0.006,-0.008,-223233
3.0006115,106318999,3.227,-9.172,-0.578,0.012,-0.008,-0.006,-223013
3.004969667,106324220,3.227,-9.172,-0.578,-0.002,-0.012,0.004,-222469
3.033579667,106328441,3.227,-9.172,-0.578,0.002,0.000,0.004,-223386
3.033653792,106332662,3.227,-9.172,-0.578,0.006,0.010,0.014,-222147
3.0337275,106337883,3.227,-9.172,-0.578,0.010,0.004,0.000,-222119
3.033799792,106343103,3.227,-9.137,-0.500,0.010,0.004,0.000,-223937
3.03387525,106346324,3.227,-9.137,-0.500,-0.006,-0.004,0.004,-222664
3.033951,106352545,3.227,-9.137,-0.500,-0.002,-0.002,-0.010,-222210
3.038422417,106357766,3.227,-9.137,-0.500,-0.004,0.000,0.004,-223049
3.066892834,106362987,3.227,-9.137,-0.500,0.006,0.006,-0.006,-222586
3.066967834,106367208,3.227,-9.137,-0.500,-0.008,0.002,0.000,-221744
3.067043,106370429,3.227,-9.137,-0.500,0.000,-0.002,-0.002,-222693
3.067118625,106374650,3.266,-9.133,-0.578,0.000,-0.002,-0.002,-223146
3.067191709,106377871,3.266,-9.133,-0.578,0.006,-0.006,0.002,-222170
3.067267667,106384092,3.266,-9.133,-0.578,-0.008,-0.002,-0.002,-222025
3.069057542,106388313,3.266,-9.133,-0.578,0.002,0.004,-0.008,-221686
3.073189417,106392534,3.266,-9.133,-0.578,0.006,0.000,0.014,-222724
3.100219,106396755,3.266,-9.133,-0.578,0.010,-0.004,0.010,-222010
3.100311459,106400976,3.266,-9.133,-0.578,-0.006,-0.012,-0.010,-221859
3.100398709,106406197,3.266,-9.133,-0.539,-0.006,-0.012,-0.010,-222774
3.100483542,106408418,3.266,-9.133,-0.539,0.002,0.006,0.002,-223237
3.100564584,106413639,3.266,-9.133,-0.539,-0.006,0.000,0.002,-222691
3.100648792,106417860,3.266,-9.133,-0.539,0.004,-0.014,-0.002,-222868
3.103762792,106423081,3.266,-9.133,-0.539,-0.008,-0.002,0.004,-222865
3.133617542,106427302,3.266,-9.133,-0.539,-0.006,-0.004,0.004,-223057
3.133694792,106431523,3.266,-9.133,-0.539,-0.008,-0.008,0.010,-222027
3.133770792,106435744,3.266,-9.133,-0.578,-0.008,-0.008,0.010,-221968
3.1338445,106438965,3.266,-9.133,-0.578,0.006,-0.006,0.000,-222981
3.133926334,106445186,3.266,-9.133,-0.578,0.000,-0.014,0.010,-223110
3.134009959,106449407,3.266,-9.133,-0.578,-0.002,0.004,-0.012,-222186
3.13408575,106452628,3.266,-9.133,-0.578,0.006,0.004,0.010,-221734
3.137630542,106456849,3.266,-9.133,-0.578,-0.008,0.002,-0.006,-222565
3.1669405,106461070,3.266,-9.133,-0.578,-0.002,-0.004,-0.006,-222862
3.167017084,106465291,3.227,-9.137,-0.617,-0.002,-0.004,-0.006,-221950
3.16709025,106468512,3.227,-9.137,-0.617,0.020,0.008,0.002,-222841
3.167163459,106473733,3.227,-9.137,-0.617,0.014,0.004,0.004,-223002
3.167236,106477954,3.227,-9.137,-0.617,0.000,0.004,0.002,-222945
3.167310417,106484175,3.227,-9.137,-0.617,0.006,-0.002,-0.002,-222795
3.169142917,106488396,3.227,-9.137,-0.617,-0.012,-0.002,0.002,-222687
3.1733625,106492617,3.227,-9.137,-0.617,-0.010,-0.004,0.002,-222826
3.200210834,106495838,3.227,-9.172,-0.617,-0.010,-0.004,0.002,-223127
3.200290667,106498059,3.227,-9.172,-0.617,-0.010,0.000,-0.002,-222406
3.200371834,106503280,3.227,-9.172,-0.617,-0.010,0.000,0.006,-223046
3.200454792,106508501,3.227,-9.172,-0.617,-0.002,-0.002,0.006,-222688
3.200537292,106513722,3.266,-9.133,-0.617,-0.002,-0.002,0.006,-223305
3.200615625,106515943,3.266,-9.133,-0.617,-0.012,-0.004,0.012,-221780
3.200827125,106520164,3.266,-9.133,-0.617,-0.006,0.006,0.008,-222951
3.206140875,106525385,3.266,-9.133,-0.617,0.006,-0.006,0.002,-223216
3.233555167,106529591,3.266,-9.133,-0.617,-0.006,0.004,0.008,-223216
3.233631334,106533811,3.266,-9.133,-0.617,0.006,-0.016,0.008,-222240
3.233706917,106538032,3.266,-9.133,-0.617,0.006,-0.006,-0.012,-222273
3.233781417,106543253,3.266,-9.133,-0.656,0.006,-0.006,-0.012,-222260
3.233853792,106546474,3.266,-9.133,-0.656,0.006,0.000,0.000,-222266
3.233928125,106551695,3.266,-9.133,-0.656,0.004,-0.004,-0.006,-222551
3.236624084,106555916,3.266,-9.133,-0.656,-0.006,0.006,0.002,-222539
3.266893334,106561137,3.266,-9.133,-0.656,0.000,0.000,0.000,-222594
3.266969042,106566357,3.266,-9.133,-0.656,0.000,0.004,-0.008,-222694
3.267072292,106571577,3.266,-9.133,-0.656,0.006,-0.002,0.004,-222263
3.267146167,106575798,3.266,-9.094,-0.500,0.006,-0.002,0.004,-222722
3.267219667,106578019,3.266,-9.094,-0.500,-0.004,0.000,0.002,-222437
3.2672965,106584240,3.266,-9.094,-0.500,-0.002,-0.008,-0.002,-222689
3.269133292,106588461,3.266,-9.094,-0.500,0.008,0.000,0.004,-222156
3.273441125,106592682,3.266,-9.094,-0.500,0.000,0.000,0.000,-222367
3.300273417,106596902,3.266,-9.094,-0.500,0.000,0.000,0.000,-223115
3.300345917,106601123,3.266,-9.094,-0.500,0.000,0.000,0.000,-222105
3.30041725,106606343,3.266,-9.133,-0.617,0.000,0.000,0.000,-222566
3.300489584,106609563,3.266,-9.133,-0.617,0.000,0.000,0.000,-222914
3.300562167,106615783,3.266,-9.133,-0.617,0.000,0.000,0.000,-222390
3.30067225,106620004,3.266,-9.133,-0.617,0.000,0.000,0.000,-223362
3.305901209,106625224,3.266,-9.133,-0.617,0.000,0.000,0.000,-222827
3.333542375,106629444,3.266,-9.133,-0.617,0.000,0.000,0.000,-222798
3.333614125,106633665,3.227,-9.137,-0.578,0.000,0.000,0.000,-221828
3.333686375,106635885,3.227,-9.137,-0.578,0.000,0.000,0.000,-222154
3.333758292,106640105,3.227,-9.137,-0.578,0.000,0.000,0.000,-223584
3.33383025,106644325,3.227,-9.137,-0.578,0.000,0.000,0.000,-223048
3.333901709,106648545,3.227,-9.137,-0.578,0.000,0.000,0.000,-222460
3.334432084,106653766,3.227,-9.137,-0.578,0.000,0.000,0.000,-222288
3.338769125,106657987,3.227,-9.137,-0.578,0.000,0.000,0.000,-222425
3.366981709,106663207,3.227,-9.172,-0.617,0.000,0.000,0.000,-222933
3.367055042,106665428,3.227,-9.172,-0.617,0.000,0.000,0.000,-222689
3.367127584,106669649,3.227,-9.172,-0.617,0.000,0.000,0.000,-223059
3.367199709,106673869,3.227,-9.172,-0.617,0.000,0.000,0.000,-223357
3.36727225,106678089,3.227,-9.172,-0.617,0.000,0.000,0.000,-222604
3.367344334,106683310,3.227,-9.172,-0.617,0.000,0.000,0.000,-223326
3.3682785,106687531,3.227,-9.172,-0.617,0.000,0.000,0.000,-222161
3.371709167,106690751,3.266,-9.133,-0.656,0.000,0.000,0.000,-222178
3.400232292,106693956,3.266,-9.133,-0.656,0.000,0.000,0.000,-222178
3.400304459,106699176,3.266,-9.133,-0.656,0.000,0.000,0.000,-222224
3.400377209,106704397,3.266,-9.133,-0.656,0.000,0.000,0.000,-222724
3.400448834,106708618,3.266,-9.133,-0.656,0.000,0.000,0.000,-223171
3.40052175,106712838,3.266,-9.133,-0.656,0.000,0.000,0.000,-223330
3.400594459,106717058,3.266,-9.133,-0.656,0.000,0.000,0.000,-222656
3.40203025,106721278,3.227,-9.098,-0.578,0.000,0.000,0.000,-222474
3.404257792,106723498,3.227,-9.098,-0.578,0.000,0.000,0.000,-222909
3.4335415,106728719,3.227,-9.098,-0.578,0.000,0.000,0.000,-223176
3.433616167,106732939,3.227,-9.098,-0.578,0.000,0.000,0.000,-222742
3.4336895,106736159,3.227,-9.098,-0.578,0.000,0.000,0.000,-222165
3.433761792,106740379,3.227,-9.098,-0.578,0.000,0.000,0.000,-223269
3.433834834,106744599,3.227,-9.098,-0.578,0.000,0.000,0.000,-223166
3.433906459,106747820,3.266,-9.133,-0.617,0.000,0.000,0.000,-222579
3.433979042,106751040,3.266,-9.133,-0.617,0.000,0.000,0.000,-222729
3.437013209,106756260,3.266,-9.133,-0.617,0.000,0.000,0.000,-223029
3.466866417,106760480,3.266,-9.133,-0.617,0.000,0.000,0.000,-222500
3.466939792,106764701,3.266,-9.133,-0.617,0.000,0.000,0.000,-222534
3.467011625,106769922,3.266,-9.133,-0.617,0.000,0.000,0.000,-222309
3.467082834,106774143,3.266,-9.133,-0.617,0.000,0.000,0.000,-222275
3.4671555,106778365,3.266,-9.133,-0.617,0.000,0.000,0.000,-222428
3.467228209,106781586,3.266,-9.133,-0.617,0.000,0.000,0.000,-222786
3.468488292,106787806,3.266,-9.133,-0.617,0.000,0.000,0.000,-222936
3.472986375,106792026,3.266,-9.133,-0.617,0.000,0.000,0.000,-222744
3.500237875,106796246,3.266,-9.133,-0.617,0.000,0.000,0.000,-222920
3.500318917,106800467,3.266,-9.133,-0.617,0.000,0.000,0.000,-222126
3.500392084,106805687,3.266,-9.133,-0.617,0.000,0.000,0.000,-222984
3.500465084,106809907,3.266,-9.133,-0.617,0.000,0.000,0.000,-223308
3.500537709,106813128,3.266,-9.133,-0.617,0.000,0.000,0.000,-221852
3.50408575,106823348,3.266,-9.133,-0.617,0.000,0.000,0.000,-223073
3.533527542,106827568,3.266,-9.133,-0.617,0.000,0.000,0.000,-222597
3.533605125,106830788,3.266,-9.133,-0.617,0.000,0.000,0.000,-222766
3.533679917,106836009,3.266,-9.133,-0.617,0.000,0.000,0.000,-224155
3.533752459,106840229,3.266,-9.133,-0.617,0.000,0.000,0.000,-223274
3.53382525,106844450,3.266,-9.133,-0.578,0.000,0.000,0.000,-222758
3.533899209,106846670,3.266,-9.133,-0.578,0.000,0.000,0.000,-222756
3.533972,106851890,3.266,-9.133,-0.578,0.000,0.000,0.000,-222182
3.536856584,106856111,3.266,-9.133,-0.578,0.000,0.000,0.000,-222326
3.56685725,106860331,3.266,-9.133,-0.578,0.000,0.000,0.000,-222490
3.566930292,106865552,3.266,-9.133,-0.578,0.000,0.000,0.000,-222745
3.567003292,106870773,3.266,-9.133,-0.578,0.000,0.000,0.000,-222777
3.567075542,106874993,3.266,-9.176,-0.656,0.000,0.000,0.000,-223507
3.567148792,106877214,3.266,-9.176,-0.656,0.000,0.000,0.000,-222777
3.567221,106883434,3.266,-9.176,-0.656,0.000,0.000,0.000,-221929
3.568411292,106887654,3.266,-9.176,-0.656,0.000,0.000,0.000,-222072
3.57257425,106891875,3.266,-9.176,-0.656,0.000,0.000,0.000,-223322
3.600186459,106896095,3.266,-9.176,-0.656,0.000,0.000,0.000,-222405
3.600258209,106900316,3.266,-9.176,-0.656,0.000,0.000,0.000,-221941
3.600330917,106905536,3.266,-9.176,-0.578,0.000,0.000,0.000,-222528
3.600402542,106908757,3.266,-9.176,-0.578,0.000,0.000,0.000,-223859
3.600475459,106913978,3.266,-9.176,-0.578,0.000,0.000,0.000,-223200
3.60054725,106919198,3.266,-9.176,-0.578,0.000,0.000,0.000,-222826
3.604103459,106923418,3.266,-9.176,-0.578,0.000,0.000,0.000,-223055
3.609310625,106928638,3.266,-9.176,-0.578,0.000,0.000,0.000,-222068
3.633536875,106932859,3.227,-9.172,-0.617,0.000,0.000,0.000,-221963
3.633613917,106935080,3.227,-9.172,-0.617,0.000,0.000,0.000,-222261
3.633686709,106939300,3.227,-9.172,-0.617,0.000,0.000,0.000,-223161
3.6337585,106944520,3.227,-9.172,-0.617,0.000,0.000,0.000,-223492
3.633830209,106948741,3.227,-9.172,-0.617,0.000,0.000,0.000,-222530
3.634708167,106953962,3.227,-9.172,-0.617,0.000,0.000,0.000,-222301
3.639830667,106959182,3.227,-9.172,-0.617,0.000,0.000,0.000,-222633
3.667071209,106964403,3.266,-9.176,-0.578,0.000,0.000,0.000,-223356
3.667212959,106967624,3.266,-9.176,-0.578,0.000,0.000,0.000,-222727
3.667284375,106972845,3.266,-9.176,-0.578,0.000,0.000,0.000,-223004
3.667357709,106977065,3.266,-9.176,-0.578,0.000,0.000,0.000,-223139
3.667429959,106982285,3.266,-9.176,-0.578,0.000,0.000,0.000,-222230
3.667502042,106986505,3.266,-9.176,-0.578,0.000,0.000,0.000,-222446
3.67147275,106990725,3.266,-9.176,-0.578,0.000,0.000,0.000,-222672
3.700416209,106993945,3.266,-9.176,-0.578,0.000,0.000,0.000,-222670
3.700598209,106997165,3.266,-9.176,-0.578,0.000,0.000,0.000,-223289
3.700671042,107003386,3.266,-9.176,-0.578,0.000,0.000,0.000,-222123
3.700742792,107007607,3.266,-9.176,-0.578,0.000,0.000,0.000,-222849
3.700815375,107011827,3.266,-9.176,-0.578,0.000,0.000,0.000,-222980
3.700888625,107016047,3.266,-9.176,-0.578,0.000,0.000,0.000,-222529
3.700960625,107020267,3.266,-9.133,-0.617,0.000,0.000,0.000,-222495
3.704261042,107023487,3.266,-9.133,-0.617,0.000,0.000,0.000,-222884
3.733530959,107029707,3.266,-9.133,-0.617,0.000,0.000,0.000,-222325
3.7336045,107033927,3.266,-9.133,-0.617,0.000,0.000,0.000,-221830
3.7336775,107038148,3.266,-9.133,-0.617,0.000,0.000,0.000,-222460
3.733749125,107043369,3.266,-9.133,-0.617,0.000,0.000,0.000,-222807
3.733821917,107047589,3.305,-9.133,-0.578,0.000,0.000,0.000,-221902
3.733892959,107049810,3.305,-9.133,-0.578,0.000,0.000,0.000,-222939
3.735797542,107055030,3.305,-9.133,-0.578,0.000,0.000,0.000,-222609
3.739932375,107059250,3.305,-9.133,-0.578,0.000,0.000,0.000,-222205
3.766869584,107066471,3.305,-9.133,-0.578,0.000,0.000,0.000,-222263
3.766941209,107070691,3.305,-9.133,-0.578,0.000,0.000,0.000,-222518
3.767013417,107075911,3.305,-9.133,-0.578,0.000,0.000,0.000,-223169
3.76708625,107080132,3.266,-9.133,-0.617,0.000,0.000,0.000,-222650
3.767159834,107083352,3.266,-9.133,-0.617,0.000,0.000,0.000,-222854
3.769350584,107088573,3.266,-9.133,-0.617,0.000,0.000,0.000,-222447
3.800207875,107093793,3.266,-9.133,-0.617,0.000,0.000,0.000,-222827
3.80029525,107099014,3.266,-9.133,-0.617,0.000,0.000,0.000,-222921
3.800368459,107104234,3.266,-9.133,-0.617,0.000,0.000,0.000,-222833
3.800440542,107107454,3.266,-9.133,-0.617,0.000,0.000,0.000,-222911
3.800512625,107112675,3.266,-9.133,-0.617,0.000,0.000,0.000,-222609
3.800584792,107115896,3.266,-9.133,-0.617,0.000,0.000,0.000,-222347
3.800779625,107120117,3.266,-9.133,-0.617,0.000,0.000,0.000,-222710
3.806171,107125338,3.266,-9.133,-0.617,0.000,0.000,0.000,-222948
3.833540417,107129558,3.266,-9.133,-0.617,0.000,0.000,0.000,-222463
3.833613875,107132778,3.266,-9.094,-0.617,0.000,0.000,0.000,-222145
3.8336865,107134999,3.266,-9.094,-0.617,0.000,0.000,0.000,-222460
3.833758,107139220,3.266,-9.094,-0.617,0.000,0.000,0.000,-223369
3.8338295,107143441,3.266,-9.094,-0.617,0.000,0.000,0.000,-222989
3.83390125,107147662,3.266,-9.094,-0.617,0.000,0.000,0.000,-222982
3.833973417,107151883,3.266,-9.094,-0.617,0.000,0.000,0.000,-221829
3.8367785,107156104,3.266,-9.094,-0.617,0.000,0.000,0.000,-223100
3.841083084,107160324,3.266,-9.133,-0.617,0.000,0.000,0.000,-222552
3.866902375,107163545,3.266,-9.133,-0.617,0.000,0.000,0.000,-222144
3.866975542,107168766,3.266,-9.133,-0.617,0.000,0.000,0.000,-221972
3.867046959,107172987,3.266,-9.133,-0.617,0.000,0.000,0.000,-222406
3.867119209,107176207,3.266,-9.133,-0.617,0.000,0.000,0.000,-223413
3.867190875,107181428,3.266,-9.133,-0.617,0.000,0.000,0.000,-222295
3.867262959,107185648,3.266,-9.133,-0.617,0.000,0.000,0.000,-222923
3.868634834,107187869,3.266,-9.133,-0.617,0.000,0.000,0.000,-223087
3.873744209,107193090,3.266,-9.133,-0.617,0.000,0.000,0.000,-223070
3.900202875,107197310,3.266,-9.133,-0.617,0.000,0.000,0.000,-222061
3.900275125,107202531,3.266,-9.133,-0.617,0.000,0.000,0.000,-221989
3.900346917,107206751,3.266,-9.133,-0.617,0.000,0.000,0.000,-223019
3.900419292,107210971,3.266,-9.133,-0.617,0.000,0.000,0.000,-221894
3.900491,107214192,3.227,-9.137,-0.617,0.000,0.000,0.000,-222508
3.900562792,107216413,3.227,-9.137,-0.617,0.000,0.000,0.000,-222342
3.902389125,107221633,3.227,-9.137,-0.617,0.000,0.000,0.000,-222070
3.906499917,107225853,3.227,-9.137,-0.617,0.000,0.000,0.000,-223158
3.933542584,107230073,3.227,-9.137,-0.617,0.000,0.000,0.000,-222010
3.93362075,107234294,3.227,-9.137,-0.617,0.000,0.000,0.000,-221778
3.933692959,107238515,3.227,-9.137,-0.617,0.000,0.000,0.000,-222959
3.933764792,107243736,3.266,-9.176,-0.617,0.000,0.000,0.000,-223161
3.933836625,107246957,3.266,-9.176,-0.617,0.000,0.000,0.000,-222208
3.933907875,107252178,3.266,-9.176,-0.617,0.000,0.000,0.000,-222940
3.93717,107256399,3.266,-9.176,-0.617,0.000,0.000,0.000,-223041
3.966914375,107260619,3.266,-9.176,-0.617,0.000,0.000,0.000,-222501
3.966988125,107266839,3.266,-9.176,-0.617,0.000,0.000,0.000,-222670
3.967061959,107272059,3.266,-9.176,-0.617,0.000,0.000,0.000,-222444
3.967135167,107276280,3.266,-9.133,-0.617,0.000,0.000,0.000,-223647
3.967208042,107278501,3.266,-9.133,-0.617,0.000,0.000,0.000,-223557
3.967280542,107284722,3.266,-9.133,-0.617,0.000,0.000,0.000,-221690
3.969723,107288943,3.266,-9.133,-0.617,0.000,0.000,0.000,-223963
3.973951834,107293163,3.266,-9.133,-0.617,0.000,0.000,0.000,-223544
4.000198042,107297383,3.266,-9.133,-0.617,0.000,0.000,0.000,-222630
4.00029,107301603,3.266,-9.133,-0.617,0.000,0.000,0.000,-221969
4.000361584,107306824,3.266,-9.133,-0.578,0.000,0.000,0.000,-222955
4.00043725,107310045,3.266,-9.133,-0.578,0.000,0.000,0.000,-222933
4.000517917,107316265,3.266,-9.133,-0.578,0.000,0.000,0.000,-223152
4.001259584,107320486,3.266,-9.133,-0.578,0.000,0.000,0.000,-222317
4.007375792,107326707,3.266,-9.133,-0.578,0.000,0.000,0.000,-222743
4.033572667,107331928,3.266,-9.133,-0.578,0.000,0.000,0.000,-223379
4.033647834,107337150,3.266,-9.133,-0.578,0.000,0.000,0.000,-221731
4.033720959,107341370,3.266,-9.133,-0.578,0.000,0.000,0.000,-222838
4.033793959,107344590,3.266,-9.133,-0.578,0.000,0.000,0.000,-223453
4.033866167,107349811,3.266,-9.133,-0.578,0.000,0.000,0.000,-222253
4.034817417,107354032,3.266,-9.133,-0.578,0.000,0.000,0.000,-222622
4.038923,107358252,3.266,-9.133,-0.578,0.000,0.000,0.000,-223724
4.066911709,107363473,3.266,-9.133,-0.578,0.000,0.000,0.000,-222234
4.066985084,107368678,3.266,-9.133,-0.578,0.000,0.000,0.000,-222234
4.067058667,107371898,3.266,-9.133,-0.617,0.000,0.000,0.000,-222477
4.06713175,107375118,3.266,-9.133,-0.617,0.000,0.000,0.000,-222456
4.067205584,107381338,3.266,-9.133,-0.617,0.000,0.000,0.000,-222771
4.067279209,107385558,3.266,-9.133,-0.617,0.000,0.000,0.000,-222925
4.069536167,107388778,3.266,-9.133,-0.617,0.000,0.000,0.000,-222753
4.100204,107393998,3.266,-9.133,-0.617,0.000,0.000,0.000,-222588
4.100277959,107399219,3.227,-9.098,-0.578,0.000,0.000,0.000,-222294
4.100353875,107402439,3.227,-9.098,-0.578,0.000,0.000,0.000,-222892
4.100426709,107407659,3.227,-9.098,-0.578,0.000,0.000,0.000,-223328
4.100498875,107411879,3.227,-9.098,-0.578,0.000,0.000,0.000,-223133
4.100570959,107416099,3.227,-9.098,-0.578,0.000,0.000,0.000,-222582
4.102074042,107421319,3.266,-9.176,-0.539,0.000,0.000,0.000,-222747
4.105300709,107424539,3.266,-9.176,-0.539,0.000,0.000,0.000,-222905
4.13356475,107430760,3.266,-9.176,-0.539,0.000,0.000,0.000,-222167
4.133639959,107434981,3.266,-9.176,-0.539,0.000,0.000,0.000,-223504
4.13371225,107438202,3.266,-9.176,-0.539,0.000,0.000,0.000,-221929
4.133784584,107443423,3.266,-9.176,-0.539,0.000,0.000,0.000,-223022
4.133856917,107447643,3.266,-9.176,-0.539,0.000,0.000,0.000,-222270
4.133929375,107451864,3.227,-9.137,-0.617,0.000,0.000,0.000,-222010
4.134729709,107454084,3.227,-9.137,-0.617,0.000,0.000,0.000,-221831
4.138987292,107458304,3.227,-9.137,-0.617,0.000,0.000,0.000,-223026
4.166888209,107462525,3.227,-9.137,-0.617,0.000,0.000,0.000,-222903
4.16696075,107466745,3.227,-9.137,-0.617,0.000,0.000,0.000,-222393
4.167036917,107471966,3.227,-9.137,-0.617,0.000,0.000,0.000,-222656
4.167109,107476187,3.227,-9.137,-0.617,0.000,0.000,0.000,-222430
4.167199334,107480408,3.227,-9.172,-0.500,0.000,0.000,0.000,-222431
4.167270917,107483629,3.227,-9.172,-0.500,0.000,0.000,0.000,-221892
4.170534834,107489850,3.227,-9.172,-0.500,0.000,0.000,0.000,-222893
4.200232667,107494070,3.227,-9.172,-0.500,0.000,0.000,0.000,-222990
4.200305834,107498290,3.227,-9.172,-0.500,0.000,0.000,0.000,-222140
4.200378875,107503513,3.227,-9.172,-0.500,0.000,0.000,0.000,-223208
4.200450667,107507734,3.227,-9.172,-0.500,0.000,0.000,0.000,-222371
4.20052225,107511954,3.191,-9.172,-0.691,0.000,0.000,0.000,-222885
4.200594084,107515175,3.191,-9.172,-0.691,0.000,0.000,0.000,-221489
4.201068709,107520395,3.191,-9.172,-0.691,0.000,0.000,0.000,-222556
4.205372459,107524615,3.191,-9.172,-0.691,0.000,0.000,0.000,-222006
4.209511,107528835,3.191,-9.172,-0.691,0.000,0.000,0.000,-223102
4.233746542,107533041,3.191,-9.172,-0.691,0.000,0.000,0.000,-223102
4.233820042,107537261,3.191,-9.172,-0.691,0.000,0.000,0.000,-222686
4.233892209,107541482,3.227,-9.137,-0.617,0.000,0.000,0.000,-222837
4.233964917,107543702,3.227,-9.137,-0.617,0.000,0.000,0.000,-222655
4.234037209,107548922,3.227,-9.137,-0.617,0.000,0.000,0.000,-222667
4.234915875,107554143,3.227,-9.137,-0.617,0.000,0.000,0.000,-222344
4.239051167,107558364,3.227,-9.137,-0.617,0.000,0.000,0.000,-223281
4.266875084,107564584,3.227,-9.137,-0.617,0.000,0.000,0.000,-221678
4.266954625,107568804,3.227,-9.137,-0.617,0.000,0.000,0.000,-223177
4.26703775,107575024,3.266,-9.133,-0.578,0.000,0.000,0.000,-223176
4.26711875,107578244,3.266,-9.133,-0.578,0.000,0.000,0.000,-223389
4.267191875,107584464,3.266,-9.133,-0.578,0.000,0.000,0.000,-222622
4.269352542,107588684,3.266,-9.133,-0.578,0.000,0.000,0.000,-223223
4.27257025,107591889,3.266,-9.133,-0.578,0.000,0.000,0.000,-223223
4.300219875,107596109,3.266,-9.133,-0.578,0.000,0.000,0.000,-222411
4.300292792,107600329,3.266,-9.133,-0.578,0.000,0.000,0.000,-222990
4.300365125,107604549,3.266,-9.176,-0.656,0.000,0.000,0.000,-223613
4.300456625,107606769,3.266,-9.176,-0.656,0.000,0.000,0.000,-222534
4.300529,107611990,3.266,-9.176,-0.656,0.000,0.000,0.000,-222448
4.300601084,107616211,3.266,-9.176,-0.656,0.000,0.000,0.000,-222873
4.300696625,107619431,3.266,-9.176,-0.656,0.000,0.000,0.000,-222055
4.305448209,107624652,3.266,-9.176,-0.656,0.000,0.000,0.000,-222917
4.333579,107629872,3.266,-9.176,-0.656,0.000,0.000,0.000,-222525
4.333651875,107634093,3.266,-9.133,-0.656,0.000,0.000,0.000,-221749
4.333724667,107636315,3.266,-9.133,-0.656,0.000,0.000,0.000,-222645
4.333796667,107641535,3.266,-9.133,-0.656,0.000,0.000,0.000,-222342
4.333868042,107646756,3.266,-9.133,-0.656,0.000,0.000,0.000,-222931
4.333939125,107650976,3.266,-9.133,-0.656,0.000,0.000,0.000,-221985
4.336891375,107656197,3.266,-9.133,-0.656,0.000,0.000,0.000,-222501
4.366897167,107661417,3.266,-9.133,-0.656,0.000,0.000,0.000,-223366
4.366969292,107666639,3.227,-9.172,-0.539,0.000,0.000,0.000,-222371
4.367050875,107668859,3.227,-9.172,-0.539,0.000,0.000,0.000,-223032
4.367143625,107674080,3.227,-9.172,-0.539,0.000,0.000,0.000,-223163
4.36723125,107678301,3.227,-9.172,-0.539,0.000,0.000,0.000,-223060
4.367303875,107683522,3.305,-9.133,-0.578,0.000,0.000,0.000,-222110
4.367415084,107686743,3.305,-9.133,-0.578,0.000,0.000,0.000,-222419
4.372660084,107691963,3.305,-9.133,-0.578,0.000,0.000,0.000,-222561
4.400202667,107696183,3.305,-9.133,-0.578,0.000,0.000,0.000,-222522
4.400273667,107700404,3.305,-9.133,-0.578,0.000,0.000,0.000,-222517
4.400349334,107705625,3.305,-9.133,-0.578,0.000,0.000,0.000,-222605
4.400429084,107709846,3.305,-9.133,-0.578,0.000,0.000,0.000,-223330
4.400510375,107714067,3.227,-9.137,-0.656,0.000,0.000,0.000,-223552
4.400590792,107717288,3.227,-9.137,-0.656,0.000,0.000,0.000,-222641
4.4042985,107723508,3.227,-9.137,-0.656,0.000,0.000,0.000,-222728
4.408505959,107727729,3.227,-9.137,-0.656,0.000,0.000,0.000,-222348
4.433538709,107731950,3.227,-9.137,-0.656,0.000,0.000,0.000,-222570
4.433613167,107736171,3.227,-9.137,-0.656,0.000,0.000,0.000,-222476
4.433684959,107740392,3.227,-9.137,-0.656,0.000,0.000,0.000,-222462
4.43375625,107745613,3.227,-9.137,-0.617,0.000,0.000,0.000,-223654
4.433827667,107748833,3.227,-9.137,-0.617,0.000,0.000,0.000,-222738
4.435848042,107755053,3.227,-9.137,-0.617,0.000,0.000,0.000,-222505
4.440070459,107759273,3.227,-9.137,-0.617,0.000,0.000,0.000,-223313
4.466862375,107763493,3.227,-9.137,-0.617,0.000,0.000,0.000,-222221
4.46693425,107767713,3.227,-9.137,-0.617,0.000,0.000,0.000,-222781
4.467005625,107771933,3.227,-9.137,-0.617,0.000,0.000,0.000,-222504
4.46707725,107776154,3.266,-9.176,-0.539,0.000,0.000,0.000,-223351
4.467148417,107778374,3.266,-9.176,-0.539,0.000,0.000,0.000,-223492
4.467219959,107782595,3.266,-9.176,-0.539,0.000,0.000,0.000,-222856
4.467480334,107786815,3.266,-9.176,-0.539,0.000,0.000,0.000,-222011
4.471811584,107791036,3.266,-9.176,-0.539,0.000,0.000,0.000,-223275
4.500191709,107795256,3.266,-9.176,-0.539,0.000,0.000,0.000,-222793
4.500262917,107799476,3.266,-9.176,-0.539,0.000,0.000,0.000,-222913
4.500333792,107804696,3.266,-9.133,-0.578,0.000,0.000,0.000,-222071
4.500405167,107806917,3.266,-9.133,-0.578,0.000,0.000,0.000,-223355
4.50048475,107812140,3.266,-9.133,-0.578,0.000,0.000,0.000,-222388
4.500564334,107816360,3.266,-9.133,-0.578,0.000,0.000,0.000,-222237
4.501366542,107820580,3.266,-9.133,-0.578,0.004,-0.008,-0.006,-222392
4.505476584,107824801,3.266,-9.133,-0.578,0.002,0.006,0.000,-222852
4.533597625,107829021,3.227,-9.172,-0.656,0.002,0.006,0.000,-222618
4.533673167,107831242,3.227,-9.172,-0.656,0.000,-0.004,-0.006,-221494
4.533747084,107836463,3.227,-9.172,-0.656,0.004,0.006,-0.010,-222642
4.533819459,107840684,3.227,-9.172,-0.656,0.004,0.008,0.004,-222585
4.533894084,107845905,3.227,-9.172,-0.656,-0.002,0.006,-0.006,-222897
4.533967875,107850126,3.227,-9.172,-0.656,-0.012,0.000,0.012,-222517
4.535005625,107854348,3.227,-9.172,-0.656,0.008,0.002,0.000,-222732
4.566892334,107859569,3.227,-9.137,-0.539,0.008,0.002,0.000,-222166
4.566967,107862790,3.227,-9.137,-0.539,-0.006,0.006,0.000,-223127
4.567048125,107868011,3.227,-9.137,-0.539,-0.002,-0.006,-0.002,-221778
4.567129834,107872232,3.227,-9.137,-0.539,-0.006,-0.004,-0.004,-223120
4.567205917,107877453,3.227,-9.137,-0.539,-0.002,-0.006,0.008,-222957
4.567279959,107881674,3.227,-9.137,-0.539,-0.002,-0.008,0.004,-222097
4.567589,107886895,3.227,-9.137,-0.539,-0.008,0.000,0.002,-222799
4.571809459,107891116,3.266,-9.133,-0.578,-0.008,0.000,0.002,-222866
4.600288709,107894337,3.266,-9.133,-0.578,0.004,-0.004,0.000,-222866
4.600365334,107899558,3.266,-9.133,-0.578,0.008,-0.004,-0.006,-222206
4.600448042,107904779,3.266,-9.133,-0.578,-0.008,0.000,-0.006,-222829
4.6005275,107909000,3.266,-9.133,-0.578,0.006,0.002,0.004,-223101
4.600608292,107914221,3.266,-9.133,-0.578,0.004,-0.010,0.010,-222619
4.600685334,107919442,3.266,-9.133,-0.578,-0.006,0.004,0.006,-221208
4.605394334,107924663,3.266,-9.133,-0.617,-0.006,0.004,0.006,-223311
4.608574542,107927884,3.266,-9.133,-0.617,0.008,-0.006,0.006,-222992
4.633554709,107933105,3.266,-9.133,-0.617,-0.002,0.000,-0.012,-222227
4.633630459,107937326,3.266,-9.133,-0.617,0.000,0.000,0.002,-222226
4.633707125,107942546,3.266,-9.133,-0.617,-0.008,-0.002,-0.004,-222924
4.633780042,107947767,3.266,-9.133,-0.617,0.002,0.002,0.010,-222079
4.633853959,107952988,3.266,-9.133,-0.617,-0.004,0.002,0.004,-222368
4.637985834,107957209,3.266,-9.133,-0.578,-0.004,0.002,0.004,-222388
4.640217542,107959430,3.266,-9.133,-0.578,0.004,0.002,0.006,-223306
4.666914167,107965651,3.266,-9.133,-0.578,0.010,-0.002,0.006,-222607
4.666988625,107969872,3.266,-9.133,-0.578,-0.004,-0.002,0.002,-222351
4.667061625,107974093,3.266,-9.133,-0.578,-0.004,0.002,0.004,-222670
4.667136167,107978314,3.266,-9.133,-0.578,-0.002,-0.010,0.004,-223223
4.667210959,107982520,3.266,-9.133,-0.578,-0.004,0.004,-0.002,-223223
4.66851625,107987740,3.191,-9.133,-0.617,-0.004,0.004,-0.002,-222774
4.671893417,107990961,3.191,-9.133,-0.617,-0.002,-0.008,-0.008,-223200
4.700205125,107997182,3.191,-9.133,-0.617,0.000,0.008,0.000,-222722
4.700277875,108001403,3.191,-9.133,-0.617,0.000,0.000,0.004,-222421
4.700352,108005623,3.191,-9.133,-0.617,-0.018,0.004,0.006,-222544
4.700424584,108009844,3.191,-9.133,-0.617,0.012,0.008,0.002,-222643
4.700498167,108015065,3.191,-9.133,-0.617,0.000,0.018,-0.010,-221676
4.700571959,108019286,3.266,-9.176,-0.617,0.000,0.018,-0.010,-222379
4.703269625,108022508,3.266,-9.176,-0.617,0.000,0.004,0.002,-222269
4.73371825,108028729,3.266,-9.176,-0.617,0.002,0.000,0.010,-222959
4.733795417,108032949,3.266,-9.176,-0.617,-0.006,-0.004,0.000,-222422
4.733868875,108036170,3.266,-9.176,-0.617,0.016,0.002,-0.002,-222879
4.733942375,108040391,3.266,-9.176,-0.617,-0.006,0.008,0.004,-222771
4.734016209,108044612,3.266,-9.176,-0.617,-0.010,0.002,0.006,-222843
4.734089584,108048833,3.227,-9.172,-0.539,-0.010,0.002,0.006,-221570
4.734162709,108052054,3.227,-9.172,-0.539,0.008,-0.004,0.014,-222544
4.738068084,108057275,3.227,-9.172,-0.539,0.008,0.004,0.004,-222132
4.76706325,108061496,3.227,-9.172,-0.539,-0.002,0.002,-0.004,-222604
4.767262292,108066717,3.227,-9.172,-0.539,0.000,-0.010,-0.020,-221948
4.767337334,108070938,3.227,-9.172,-0.539,-0.002,0.008,0.002,-222287
4.767418584,108075159,3.227,-9.172,-0.539,-0.002,-0.002,0.000,-222690
4.76749475,108079380,3.266,-9.176,-0.617,-0.002,-0.002,0.000,-222421
4.767570959,108082601,3.266,-9.176,-0.617,-0.006,0.004,-0.006,-222828
4.769525584,108088822,3.266,-9.176,-0.617,0.008,0.004,0.002,-224006
4.800246209,108094043,3.266,-9.176,-0.617,-0.006,0.000,0.004,-222833
4.800321792,108098264,3.266,-9.133,-0.578,-0.006,0.000,0.004,-222033
4.800397084,108101485,3.266,-9.133,-0.578,0.004,0.002,-0.010,-222301
4.8004715,108107706,3.266,-9.133,-0.578,0.000,-0.006,0.010,-223078
4.800545334,108111927,3.266,-9.133,-0.578,0.012,0.002,-0.010,-222429
4.800620167,108117148,3.266,-9.133,-0.578,0.010,0.002,-0.008,-221994
4.802071084,108121369,3.266,-9.133,-0.578,0.000,0.002,0.006,-222479
4.807253292,108126590,3.266,-9.133,-0.578,-0.002,0.004,-0.010,-223098
4.833584084,108130811,3.227,-9.098,-0.656,-0.002,0.004,-0.010,-221797
4.833657834,108134032,3.227,-9.098,-0.656,0.006,0.000,0.002,-222124
4.83373225,108139253,3.227,-9.098,-0.656,0.012,-0.004,0.006,-223211
4.833826667,108144474,3.227,-9.098,-0.656,-0.002,0.006,0.002,-223142
4.833899792,108149695,3.227,-9.098,-0.656,0.006,0.002,0.012,-221982
4.835730625,108154916,3.227,-9.137,-0.539,0.006,0.002,0.012,-223053
4.838822792,108158137,3.227,-9.137,-0.539,-0.008,0.008,0.006,-222033
4.866907959,108164358,3.227,-9.137,-0.539,0.002,-0.002,0.016,-222847
4.866982125,108168579,3.227,-9.137,-0.539,0.000,-0.004,0.000,-221920
4.867062,108172800,3.227,-9.137,-0.539,0.004,-0.010,0.004,-223129
4.867144084,108177021,3.227,-9.137,-0.539,0.004,0.004,-0.002,-223031
4.867220667,108181242,3.227,-9.137,-0.539,0.000,-0.006,0.002,-222379
4.867295125,108186463,3.266,-9.133,-0.656,0.000,-0.006,0.002,-222391
4.870428667,108189684,3.266,-9.133,-0.656,0.000,0.002,-0.004,-222669
4.900265542,108194907,3.266,-9.133,-0.656,-0.004,0.006,0.014,-223459
4.90033875,108200129,3.266,-9.133,-0.656,0.002,0.000,-0.002,-223022
4.900412209,108204349,3.266,-9.133,-0.656,-0.002,0.004,0.000,-222636
4.90048475,108208570,3.266,-9.133,-0.656,-0.010,0.006,0.004,-223109
4.900556834,108211791,3.266,-9.133,-0.656,0.002,0.012,0.002,-223256
4.900628084,108216011,3.227,-9.172,-0.656,0.002,0.012,0.002,-222028
4.900701292,108219232,3.227,-9.172,-0.656,0.010,0.002,-0.004,-222769
4.906138042,108225453,3.227,-9.172,-0.656,-0.002,-0.010,-0.006,-222632
4.933554667,108229674,3.227,-9.172,-0.656,0.000,0.006,-0.004,-222908
4.933629792,108233895,3.227,-9.172,-0.656,-0.002,0.002,-0.004,-222285
4.933704584,108238116,3.227,-9.172,-0.656,-0.006,-0.006,0.000,-222543
4.93377725,108242337,3.227,-9.172,-0.656,0.008,0.002,-0.018,-221981
4.933849875,108247558,3.305,-9.133,-0.578,0.008,0.002,-0.018,-222141
4.933923375,108250779,3.305,-9.133,-0.578,-0.008,0.000,-0.006,-221865
4.937767667,108257000,3.305,-9.133,-0.578,0.004,-0.012,0.010,-223515
4.966924917,108261221,3.305,-9.133,-0.578,0.004,0.008,0.002,-223121
4.967000167,108265442,3.305,-9.133,-0.578,-0.002,0.006,0.018,-222554
4.967074,108269663,3.305,-9.133,-0.578,-0.012,0.004,0.010,-222376
4.967155875,108274884,3.305,-9.133,-0.578,-0.004,0.004,0.000,-222416
4.967233167,108279105,3.227,-9.137,-0.656,-0.004,0.004,0.000,-222867
4.967308084,108282326,3.227,-9.137,-0.656,-0.002,0.004,-0.004,-222111
4.968382042,108287547,3.227,-9.137,-0.656,-0.004,-0.006,-0.008,-222605
4.973469625,108292768,3.227,-9.137,-0.656,0.004,-0.004,-0.010,-223315
5.00050375,108296989,3.227,-9.137,-0.656,-0.008,0.006,0.006,-222489
5.000579084,108302210,3.227,-9.137,-0.656,0.002,0.006,-0.006,-222764
5.000652959,108306431,3.227,-9.137,-0.656,0.000,-0.004,0.014,-222731
5.000732,108309652,3.227,-9.137,-0.578,0.000,-0.004,0.014,-222965
5.00080475,108311873,3.227,-9.137,-0.578,0.010,0.002,0.002,-221886
5.000879834,108317093,3.227,-9.137,-0.578,-0.002,-0.004,0.000,-222600
5.002129042,108321314,3.227,-9.137,-0.578,-0.002,0.004,0.000,-222882
5.008257125,108327535,3.227,-9.137,-0.578,0.004,-0.006,-0.012,-222635
5.033785375,108331756,3.227,-9.137,-0.578,0.000,0.000,0.008,-222632
5.033862834,108335977,3.227,-9.137,-0.578,-0.008,0.008,-0.010,-222318
5.033939042,108340198,3.305,-9.176,-0.578,-0.008,0.008,-0.010,-222826
5.034012875,108343419,3.305,-9.176,-0.578,0.006,0.012,0.000,-222974
5.034088,108349639,3.305,-9.176,-0.578,-0.004,-0.012,0.012,-222818
5.035664792,108354860,3.305,-9.176,-0.578,0.004,0.006,0.006,-223034
5.039782042,108359081,3.305,-9.176,-0.578,0.002,0.008,0.000,-223492
5.066871292,108364301,3.305,-9.176,-0.578,0.008,0.004,0.002,-222507
5.066945584,108368522,3.305,-9.176,-0.578,0.004,-0.004,0.002,-222513
5.067018834,108372743,3.266,-9.133,-0.656,0.004,-0.004,0.002,-222964
5.067091542,108374964,3.266,-9.133,-0.656,-0.012,0.000,0.010,-222203
5.067171,108379185,3.266,-9.133,-0.656,-0.010,0.006,-0.014,-222343
5.067248084,108383406,3.266,-9.133,-0.656,0.004,0.014,-0.006,-222513
5.067525084,108386627,3.266,-9.133,-0.656,-0.002,0.000,0.000,-222431
5.071548042,108390848,3.266,-9.133,-0.656,-0.002,0.002,0.004,-223330
5.100245959,108395069,3.266,-9.133,-0.656,0.006,0.000,-0.006,-223057
5.100321042,108399290,3.227,-9.137,-0.578,0.006,0.000,-0.006,-222649
5.100394875,108402511,3.227,-9.137,-0.578,-0.008,0.006,0.016,-222793
5.100468042,108407732,3.227,-9.137,-0.578,0.002,-0.004,0.012,-222699
5.1005425,108411953,3.227,-9.137,-0.578,-0.008,0.000,-0.002,-223024
5.100615375,108417174,3.227,-9.137,-0.578,-0.010,0.008,0.012,-222166
5.103163959,108422395,3.227,-9.172,-0.656,-0.010,0.008,0.012,-223395
5.106397709,108425616,3.227,-9.172,-0.656,-0.008,0.000,0.000,-223147
5.13352575,108430837,3.227,-9.172,-0.656,-0.010,0.000,-0.008,-222778
5.133600834,108435058,3.227,-9.172,-0.656,0.006,0.006,-0.004,-222442
5.133677917,108439279,3.227,-9.172,-0.656,0.004,0.012,0.012,-222712
5.133751417,108444500,3.227,-9.172,-0.656,-0.004,0.004,-0.014,-222452
5.133825709,108448723,3.227,-9.172,-0.656,0.008,-0.004,-0.008,-221925
5.13389925,108451944,3.266,-9.176,-0.578,0.008,-0.004,-0.008,-222100
5.135949959,108455164,3.266,-9.176,-0.578,-0.004,0.010,0.010,-222680
5.166886792,108460385,3.266,-9.176,-0.578,0.008,-0.004,0.006,-223206
5.166961334,108465606,3.266,-9.176,-0.578,-0.006,0.000,0.004,-222216
5.167033709,108469827,3.266,-9.176,-0.578,0.000,0.006,0.006,-222753
5.167107625,108474048,3.266,-9.176,-0.578,-0.004,0.008,0.000,-222749
5.167182917,108477269,3.266,-9.176,-0.578,-0.006,-0.002,-0.012,-222659
5.167260292,108481490,3.305,-9.133,-0.578,-0.006,-0.002,-0.012,-222864
5.167334334,108484711,3.305,-9.133,-0.578,-0.004,-0.002,0.002,-223131
5.171705834,108490932,3.305,-9.133,-0.578,-0.002,0.004,-0.008,-223010
5.200288167,108495153,3.305,-9.133,-0.578,0.000,0.000,0.004,-223245
5.200471209,108499374,3.305,-9.133,-0.578,0.010,0.006,-0.010,-222808
5.200544125,108504595,3.305,-9.133,-0.578,0.004,0.000,-0.006,-222564
5.200616667,108508816,3.305,-9.133,-0.578,-0.004,0.000,0.010,-223135
5.200689167,108513037,3.266,-9.176,-0.617,-0.004,0.000,0.010,-222505
5.200762417,108516258,3.266,-9.176,-0.617,0.004,0.002,-0.008,-222528
5.2032885,108522479,3.266,-9.176,-0.617,-0.008,0.002,-0.006,-222674
5.207359667,108526700,3.266,-9.176,-0.617,0.004,-0.004,-0.002,-222836
5.233539167,108529921,3.266,-9.176,-0.617,0.002,0.010,0.018,-222618
5.233613084,108534142,3.266,-9.176,-0.617,-0.002,0.000,0.006,-222754
5.233683875,108539363,3.266,-9.176,-0.617,0.008,0.000,0.006,-222896
5.233755584,108544584,3.305,-9.133,-0.656,0.008,0.000,0.006,-222620
5.233826709,108547804,3.305,-9.133,-0.656,0.008,0.000,0.010,-222418
5.234719625,108554025,3.305,-9.133,-0.656,0.006,0.000,-0.006,-222499
5.239025334,108558246,3.305,-9.133,-0.656,0.000,0.002,-0.012,-222887
5.2669165,108561467,3.305,-9.133,-0.656,-0.004,0.004,-0.002,-223143
5.266989625,108566688,3.305,-9.133,-0.656,0.014,0.008,0.006,-222327
5.267066375,108570909,3.305,-9.133,-0.656,-0.010,-0.002,-0.006,-221944
5.267141417,108575130,3.227,-9.098,-0.578,-0.010,-0.002,-0.006,-222782
5.267215709,108577351,3.227,-9.098,-0.578,-0.010,0.006,-0.002,-222635
5.2672905,108581572,3.227,-9.098,-0.578,-0.004,-0.010,-0.002,-222487
5.267473584,108586793,3.227,-9.098,-0.578,0.000,0.000,0.004,-222658
5.272702459,108592014,3.227,-9.098,-0.578,0.010,-0.002,0.000,-223166
5.300199042,108596235,3.227,-9.098,-0.578,0.002,-0.004,-0.002,-222900
5.300274292,108600456,3.227,-9.098,-0.578,-0.002,-0.004,0.010,-222464
5.300350042,108606677,3.266,-9.133,-0.656,-0.002,-0.004,0.010,-222938
5.300423084,108608898,3.266,-9.133,-0.656,-0.004,0.004,0.000,-222923
5.300496209,108615119,3.266,-9.133,-0.656,0.002,0.002,-0.002,-222829
5.300568,108619341,3.266,-9.133,-0.656,0.000,0.000,0.008,-222132
5.305264,108624562,3.266,-9.133,-0.656,-0.006,0.000,-0.006,-223723
5.333532792,108628783,3.266,-9.133,-0.656,0.004,-0.004,0.012,-222969
5.333609209,108633004,3.266,-9.133,-0.656,-0.004,-0.006,-0.008,-223075
5.333684625,108637225,3.266,-9.133,-0.539,-0.004,-0.006,-0.008,-222177
5.333758959,108640446,3.266,-9.133,-0.539,-0.012,-0.008,0.002,-222454
5.333831125,108646667,3.266,-9.133,-0.539,0.006,0.000,-0.002,-223054
5.333906375,108650888,3.266,-9.133,-0.539,0.002,-0.008,-0.010,-223300
5.335804792,108655109,3.266,-9.133,-0.539,0.006,0.000,0.004,-223059
5.366857667,108660329,3.266,-9.133,-0.539,-0.002,0.000,0.002,-223202
5.366955542,108664550,3.266,-9.133,-0.539,0.000,0.006,-0.008,-222726
5.367027709,108667771,3.266,-9.133,-0.656,0.000,0.006,-0.008,-222476
5.367100959,108669992,3.266,-9.133,-0.656,-0.004,0.000,-0.004,-222442
5.367173125,108674213,3.266,-9.133,-0.656,0.002,-0.008,0.012,-222465
5.367247042,108678434,3.266,-9.133,-0.656,-0.012,-0.002,-0.008,-222800
5.36731775,108681655,3.266,-9.133,-0.656,0.004,0.006,0.014,-222853
5.36755525,108686876,3.266,-9.133,-0.656,-0.006,0.004,0.006,-222511
5.371864834,108691097,3.266,-9.133,-0.656,0.000,0.000,0.004,-222885
5.400399792,108695318,3.266,-9.133,-0.617,0.000,0.000,0.004,-222490
5.40054525,108697539,3.266,-9.133,-0.617,0.010,0.004,0.014,-221966
5.400621209,108701760,3.266,-9.133,-0.617,-0.006,-0.008,-0.008,-221810
5.400701209,108705981,3.266,-9.133,-0.617,0.000,-0.002,0.000,-222485
5.40077625,108709202,3.266,-9.133,-0.617,-0.002,0.002,0.004,-223426
5.400849917,108714423,3.266,-9.133,-0.617,-0.008,0.000,-0.006,-222257
5.400924917,108719644,3.266,-9.133,-0.617,-0.018,-0.006,-0.006,-222909
5.405558125,108724865,3.305,-9.133,-0.578,-0.018,-0.006,-0.006,-222884
5.407765,108727086,3.305,-9.133,-0.578,-0.002,-0.006,-0.002,-223394
5.433597459,108731307,3.305,-9.133,-0.578,-0.002,-0.006,-0.012,-222890
5.433859667,108735528,3.305,-9.133,-0.578,0.010,-0.006,0.000,-222553
5.434023417,108739749,3.305,-9.133,-0.578,0.008,0.008,0.002,-222307
5.434096875,108744970,3.305,-9.133,-0.578,0.002,-0.002,-0.002,-223282
5.434171834,108749191,3.305,-9.133,-0.578,-0.008,0.004,-0.002,-222724
5.434246334,108753412,3.266,-9.133,-0.617,-0.008,0.004,-0.002,-222703
5.437407292,108756633,3.266,-9.133,-0.617,-0.006,0.012,0.000,-222358
5.466896625,108761854,3.266,-9.133,-0.617,-0.008,-0.002,-0.010,-223175
5.466970625,108766075,3.266,-9.133,-0.617,0.000,0.008,-0.010,-222797
5.467043167,108770296,3.266,-9.133,-0.617,-0.008,0.000,0.006,-222503
5.46711525,108774517,3.266,-9.133,-0.617,0.004,0.002,0.000,-223567
5.467186125,108778737,3.266,-9.133,-0.617,0.000,0.004,0.004,-223332
5.467258,108782958,3.266,-9.094,-0.617,0.000,0.004,0.004,-222846
5.467330417,108785179,3.266,-9.094,-0.617,0.000,-0.010,0.006,-222430
5.471178334,108790400,3.266,-9.094,-0.617,0.000,0.002,0.000,-222294
5.500255,108794620,3.266,-9.094,-0.617,-0.002,0.000,0.000,-223247
5.500329625,108797841,3.266,-9.094,-0.617,0.002,-0.004,-0.010,-222405
5.50040225,108802062,3.266,-9.094,-0.617,0.010,-0.004,0.000,-222894
5.500474875,108807283,3.266,-9.094,-0.617,0.000,0.000,0.014,-222621
5.500548209,108810504,3.266,-9.133,-0.578,0.000,0.000,0.014,-223021
5.500622375,108815725,3.266,-9.133,-0.578,-0.008,0.010,-0.002,-222344
5.5006955,108819946,3.266,-9.133,-0.578,0.002,-0.004,0.012,-222792
5.505847834,108825167,3.266,-9.133,-0.578,-0.002,0.000,0.000,-223503
5.533521459,108829388,3.266,-9.133,-0.578,0.004,0.000,0.006,-223273
5.533595,108833609,3.266,-9.133,-0.578,0.008,-0.002,0.014,-222192
5.533667542,108837830,3.227,-9.137,-0.539,0.008,-0.002,0.014,-222811
5.533739959,108841051,3.227,-9.137,-0.539,-0.002,0.002,0.004,-223098
5.533811042,108847272,3.227,-9.137,-0.539,0.002,0.004,0.012,-222916
5.533882459,108851493,3.227,-9.137,-0.539,0.000,0.002,0.010,-222643
5.536518,108855714,3.227,-9.137,-0.539,0.000,0.000,0.000,-222913
5.566856875,108859935,3.227,-9.137,-0.539,0.000,0.000,0.000,-223324
5.566928375,108869156,3.227,-9.137,-0.539,0.000,0.000,0.000,-222284
5.567000417,108873376,3.305,-9.133,-0.578,0.000,0.000,0.000,-222344
5.56707175,108876596,3.305,-9.133,-0.578,0.000,0.000,0.000,-222410
5.567143459,108881816,3.305,-9.133,-0.578,0.000,0.000,0.000,-222987
5.567215,108886037,3.305,-9.133,-0.578,0.000,0.000,0.000,-222694
5.571045792,108890257,3.305,-9.133,-0.578,0.000,0.000,0.000,-222732
5.600264292,108894478,3.305,-9.133,-0.578,0.000,0.000,0.000,-222424
5.600337709,108898698,3.305,-9.133,-0.578,0.000,0.000,0.000,-222034
5.600409459,108902918,3.266,-9.176,-0.656,0.000,0.000,0.000,-222815
5.600481375,108905138,3.266,-9.176,-0.656,0.000,0.000,0.000,-223296
5.600552042,108910358,3.266,-9.176,-0.656,0.000,0.000,0.000,-223069
5.6006235,108914579,3.266,-9.176,-0.656,0.000,0.000,0.000,-222658
5.600694042,108917799,3.266,-9.176,-0.656,0.000,0.000,0.000,-222264
5.602826417,108922020,3.266,-9.176,-0.656,0.000,0.000,0.000,-222596
5.606945084,108926240,3.266,-9.176,-0.656,0.000,0.000,0.000,-222646
5.633602042,108930460,3.227,-9.137,-0.656,0.000,0.000,0.000,-222648
5.633674084,108932681,3.227,-9.137,-0.656,0.000,0.000,0.000,-222108
5.633745875,108937902,3.227,-9.137,-0.656,0.000,0.000,0.000,-222319
5.633816459,108942122,3.227,-9.137,-0.656,0.000,0.000,0.000,-222520
5.63388875,108946342,3.227,-9.137,-0.656,0.000,0.000,0.000,-223058
5.633961375,108950563,3.227,-9.137,-0.656,0.000,0.000,0.000,-222438
5.636578917,108955783,3.227,-9.137,-0.656,0.000,0.000,0.000,-223080
5.640805792,108960003,3.227,-9.172,-0.617,0.000,0.000,0.000,-222874
5.667042167,108963223,3.227,-9.172,-0.617,0.000,0.000,0.000,-222172
5.667184209,108969444,3.227,-9.172,-0.617,0.000,0.000,0.000,-222785
5.667257292,108973665,3.227,-9.172,-0.617,0.000,0.000,0.000,-222472
5.667329042,108976886,3.227,-9.172,-0.617,0.000,0.000,0.000,-222640
5.667400667,108981107,3.227,-9.172,-0.617,0.000,0.000,0.000,-222208
5.667472209,108985327,3.227,-9.172,-0.617,0.000,0.000,0.000,-222162
5.670235084,108989548,3.305,-9.133,-0.617,0.000,0.000,0.000,-223137
5.67246475,108991768,3.305,-9.133,-0.617,0.000,0.000,0.000,-223757
5.700199417,108996989,3.305,-9.133,-0.617,0.000,0.000,0.000,-222214
5.700270667,109001195,3.305,-9.133,-0.617,0.000,0.000,0.000,-222214
5.700341834,109005415,3.305,-9.133,-0.617,0.000,0.000,0.000,-222315
5.700412375,109010635,3.305,-9.133,-0.617,0.000,0.000,0.000,-223069
5.70048375,109014856,3.305,-9.133,-0.617,0.000,0.000,0.000,-222915
5.700554459,109019076,3.227,-9.137,-0.578,0.000,0.000,0.000,-222315
5.702997042,109022296,3.227,-9.137,-0.578,0.000,0.000,0.000,-221845
5.7337215,109028516,3.227,-9.137,-0.578,0.000,0.000,0.000,-223410
5.733861625,109032737,3.227,-9.137,-0.578,0.000,0.000,0.000,-222182
5.733933625,109036957,3.227,-9.137,-0.578,0.000,0.000,0.000,-221759
5.734005834,109040177,3.227,-9.172,-0.656,0.000,0.000,0.000,-222393
5.734078292,109045398,3.227,-9.172,-0.656,0.000,0.000,0.000,-223141
5.734150959,109049619,3.227,-9.172,-0.656,0.000,0.000,0.000,-222523
5.735529542,109054839,3.227,-9.172,-0.656,0.000,0.000,0.000,-222625
5.739756709,109059059,3.227,-9.172,-0.656,0.000,0.000,0.000,-222739
5.766874167,109065279,3.227,-9.172,-0.656,0.000,0.000,0.000,-222983
5.766946709,109069500,3.227,-9.172,-0.539,0.000,0.000,0.000,-223392
5.767023792,109072721,3.227,-9.172,-0.539,0.000,0.000,0.000,-222677
5.767128209,109077941,3.227,-9.172,-0.539,0.000,0.000,0.000,-222164
5.767199584,109082161,3.227,-9.172,-0.539,0.000,0.000,0.000,-222866
5.767271584,109086381,3.227,-9.172,-0.539,0.000,0.000,0.000,-222073
5.771377042,109090602,3.227,-9.172,-0.539,0.000,0.000,0.000,-222673
5.800188959,109094822,3.227,-9.172,-0.539,0.000,0.000,0.000,-222358
5.80026775,109099043,3.266,-9.133,-0.617,0.000,0.000,0.000,-222602
5.800340542,109102263,3.266,-9.133,-0.617,0.000,0.000,0.000,-222394
5.800412625,109108484,3.266,-9.133,-0.617,0.000,0.000,0.000,-223562
5.800488625,109112705,3.266,-9.133,-0.617,0.000,0.000,0.000,-223477
5.800561042,109116925,3.266,-9.133,-0.617,0.000,0.000,0.000,-222085
5.802924875,109122145,3.266,-9.133,-0.617,0.000,0.000,0.000,-223611
5.833563209,109129365,3.266,-9.133,-0.617,0.000,0.000,0.000,-222183
5.833637625,109132586,3.227,-9.137,-0.617,0.000,0.000,0.000,-222998
5.833709334,109135806,3.227,-9.137,-0.617,0.000,0.000,0.000,-222547
5.833782,109141026,3.227,-9.137,-0.617,0.000,0.000,0.000,-222916
5.833853834,109146246,3.227,-9.137,-0.617,0.000,0.000,0.000,-223623
5.833926542,109150467,3.227,-9.137,-0.617,0.000,0.000,0.000,-222199
5.836466667,109155687,3.227,-9.137,-0.617,0.000,0.000,0.000,-223133
5.866846584,109160908,3.227,-9.137,-0.617,0.000,0.000,0.000,-223805
5.866917709,109166129,3.266,-9.133,-0.617,0.000,0.000,0.000,-222736
5.866988959,109169350,3.266,-9.133,-0.617,0.000,0.000,0.000,-221956
5.867059334,109175570,3.266,-9.133,-0.617,0.000,0.000,0.000,-222992
5.867153584,109179790,3.266,-9.133,-0.617,0.000,0.000,0.000,-222216
5.867225167,109185011,3.266,-9.133,-0.617,0.000,0.000,0.000,-222481
5.871022875,109190231,3.266,-9.133,-0.617,0.000,0.000,0.000,-222477
5.900424209,109195452,3.266,-9.133,-0.578,0.000,0.000,0.000,-223353
5.900523,109197672,3.266,-9.133,-0.578,0.000,0.000,0.000,-223021
5.900594709,109202892,3.266,-9.133,-0.578,0.000,0.000,0.000,-222294
5.900667292,109207113,3.266,-9.133,-0.578,0.000,0.000,0.000,-223082
5.900738959,109211335,3.266,-9.133,-0.578,0.000,0.000,0.000,-223441
5.900810584,109216555,3.266,-9.133,-0.578,0.000,0.000,0.000,-221517
5.90152975,109220775,3.266,-9.133,-0.578,0.000,0.000,0.000,-223195
5.905817042,109224995,3.227,-9.137,-0.617,0.000,0.000,0.000,-223010
5.933530375,109228215,3.227,-9.137,-0.617,0.000,0.000,0.000,-223340
5.9336025,109233436,3.227,-9.137,-0.617,0.000,0.000,0.000,-222250
5.933674167,109237657,3.227,-9.137,-0.617,0.000,0.000,0.000,-222344
5.933745542,109240877,3.227,-9.137,-0.617,0.000,0.000,0.000,-222580
5.933816875,109247098,3.227,-9.137,-0.617,0.000,0.000,0.000,-222430
5.93388825,109251318,3.227,-9.137,-0.617,0.000,0.000,0.000,-222816
5.936330875,109255538,3.227,-9.137,-0.578,0.000,0.000,0.000,-222310
5.938535459,109257758,3.227,-9.137,-0.578,0.000,0.000,0.000,-222646
5.9669105,109262963,3.227,-9.137,-0.578,0.000,0.000,0.000,-222646
5.966984334,109268183,3.227,-9.137,-0.578,0.000,0.000,0.000,-222258
5.967056542,109272404,3.227,-9.137,-0.578,0.000,0.000,0.000,-223210
5.967128792,109277624,3.227,-9.137,-0.578,0.000,0.000,0.000,-223223
5.967200542,109282844,3.227,-9.137,-0.578,0.000,0.000,0.000,-222422
5.96775825,109287064,3.227,-9.137,-0.656,0.000,0.000,0.000,-222455
5.970076875,109289285,3.227,-9.137,-0.656,0.000,0.000,0.000,-222679
6.000243375,109294506,3.227,-9.137,-0.656,0.000,0.000,0.000,-222933
6.00031575,109298726,3.227,-9.137,-0.656,0.000,0.000,0.000,-222385
6.000387334,109303946,3.227,-9.137,-0.656,0.000,0.000,0.000,-222752
6.000458542,109308167,3.227,-9.137,-0.656,0.000,0.000,0.000,-222490
6.000530125,109312387,3.227,-9.137,-0.656,0.000,0.000,0.000,-223159
6.000601042,109315608,3.227,-9.172,-0.578,0.000,0.000,0.000,-222929
6.000672542,109318828,3.227,-9.172,-0.578,0.000,0.000,0.000,-222410
6.005779667,109325049,3.227,-9.172,-0.578,0.000,0.000,0.000,-223309
6.033558917,109329270,3.227,-9.172,-0.578,0.000,0.000,0.000,-223194
6.033631875,109333491,3.227,-9.172,-0.578,0.000,0.000,0.000,-221835
6.0337045,109337712,3.227,-9.172,-0.578,0.000,0.000,0.000,-222317
6.0337765,109341932,3.227,-9.172,-0.578,0.000,0.000,0.000,-222884
6.033848959,109347153,3.266,-9.211,-0.500,0.000,0.000,0.000,-222140
6.033925709,109350373,3.266,-9.211,-0.500,0.000,0.000,0.000,-222157
6.03643325,109355594,3.266,-9.211,-0.500,0.000,0.000,0.000,-223382
6.06688975,109360814,3.266,-9.211,-0.500,0.000,0.000,0.000,-222623
6.066963417,109366035,3.266,-9.211,-0.500,0.000,0.000,0.000,-222083
6.06703525,109370256,3.266,-9.211,-0.500,0.000,0.000,0.000,-221684
6.067107209,109376477,3.266,-9.133,-0.656,0.000,0.000,0.000,-223240
6.067178667,109378698,3.266,-9.133,-0.656,0.000,0.000,0.000,-222578
6.067250584,109382918,3.266,-9.133,-0.656,0.000,0.000,0.000,-222160
6.068878542,109388139,3.266,-9.133,-0.656,0.000,0.000,0.000,-222993
6.100329125,109392359,3.266,-9.133,-0.656,0.000,0.000,0.000,-223421
6.100604167,109397580,3.266,-9.133,-0.656,0.000,0.000,0.000,-223109
6.100677,109402801,3.266,-9.133,-0.656,0.000,0.000,0.000,-222796
6.100748834,109408021,3.227,-9.137,-0.578,0.000,0.000,0.000,-223205
6.100821417,109411242,3.227,-9.137,-0.578,0.000,0.000,0.000,-222817
6.100894292,109416463,3.227,-9.137,-0.578,0.000,0.000,0.000,-222301
6.101369625,109420684,3.227,-9.137,-0.578,0.000,0.000,0.000,-222984
6.106594875,109425905,3.227,-9.137,-0.578,0.000,0.000,0.000,-223217
6.133720042,109430126,3.227,-9.137,-0.578,0.000,0.000,0.000,-222596
6.133851792,109434346,3.227,-9.137,-0.578,0.000,0.000,0.000,-222564
6.133924,109437566,3.266,-9.176,-0.578,0.000,0.000,0.000,-222844
6.133996375,109440786,3.266,-9.176,-0.578,0.000,0.000,0.000,-222456
6.134073084,109447006,3.266,-9.176,-0.578,0.000,0.000,0.000,-222526
6.134147584,109451227,3.266,-9.176,-0.578,0.000,0.000,0.000,-222593
6.136232,109455447,3.266,-9.176,-0.578,0.000,0.000,0.000,-222798
6.140505959,109459668,3.266,-9.176,-0.578,0.000,0.000,0.000,-223074
6.167093292,109464888,3.266,-9.176,-0.578,0.000,0.000,0.000,-222751
6.167241959,109469109,3.227,-9.172,-0.617,0.000,0.000,0.000,-222305
6.167313875,109471331,3.227,-9.172,-0.617,0.000,0.000,0.000,-222369
6.167386042,109476552,3.227,-9.172,-0.617,0.000,0.000,0.000,-223131
6.1674575,109480773,3.227,-9.172,-0.617,0.000,0.000,0.000,-222786
6.167529167,109484994,3.227,-9.172,-0.617,0.000,0.000,0.000,-222462
6.170035417,109489215,3.227,-9.172,-0.617,0.000,0.000,0.000,-222326
6.173217959,109492435,3.227,-9.172,-0.617,0.000,0.000,0.000,-222996
6.200182375,109496656,3.266,-9.133,-0.578,0.000,0.000,0.000,-222990
6.200275125,109498877,3.266,-9.133,-0.578,0.000,0.000,0.000,-222237
6.200371125,109503097,3.266,-9.133,-0.578,0.000,0.000,0.000,-222380
6.20044625,109508318,3.266,-9.133,-0.578,0.000,0.000,0.000,-223540
6.200699209,109512538,3.266,-9.133,-0.578,0.000,0.000,0.000,-221975
6.200772667,109517759,3.266,-9.133,-0.578,0.000,0.000,0.000,-222625
6.203685084,109522980,3.266,-9.133,-0.578,0.000,0.000,0.000,-222690
6.207873625,109527201,3.266,-9.176,-0.617,0.000,0.000,0.000,-222332
6.233537375,109530422,3.266,-9.176,-0.617,0.000,0.000,0.000,-222105
6.233611292,109535643,3.266,-9.176,-0.617,0.000,0.000,0.000,-222416
6.233683834,109539864,3.266,-9.176,-0.617,0.000,0.000,0.000,-223221
6.233757875,109545085,3.266,-9.176,-0.617,0.000,0.000,0.000,-222396
6.233829959,109550305,3.266,-9.176,-0.617,0.000,0.000,0.000,-221782
6.236338709,109555525,3.266,-9.176,-0.578,0.000,0.000,0.000,-222771
6.239554584,109558745,3.266,-9.176,-0.578,0.000,0.000,0.000,-222217
6.266855917,109564966,3.266,-9.176,-0.578,0.000,0.000,0.000,-222981
6.266928,109569187,3.266,-9.176,-0.578,0.000,0.000,0.000,-222926
6.266999584,109573408,3.266,-9.176,-0.578,0.000,0.000,0.000,-222457
6.267071125,109577629,3.266,-9.176,-0.578,0.000,0.000,0.000,-222386
6.267142709,109581850,3.227,-9.172,-0.656,0.000,0.000,0.000,-222168
6.267215459,109585071,3.227,-9.172,-0.656,0.000,0.000,0.000,-222569
6.272012042,109591291,3.227,-9.172,-0.656,0.000,0.000,0.000,-223332
6.300193875,109595511,3.227,-9.172,-0.656,0.000,0.000,0.000,-222927
6.300268084,109600732,3.227,-9.172,-0.656,0.000,0.000,0.000,-222543
6.300339667,109605953,3.227,-9.172,-0.656,0.000,0.000,0.000,-223232
6.300411625,109611174,3.227,-9.172,-0.656,0.000,0.000,0.000,-222724
6.300483209,109616395,3.266,-9.133,-0.617,0.000,0.000,0.000,-222414
6.300554584,109619615,3.266,-9.133,-0.617,0.000,0.000,0.000,-221613
6.30653775,109625837,3.266,-9.133,-0.617,0.000,0.000,0.000,-222501
6.333617459,109630058,3.266,-9.133,-0.617,0.000,0.000,0.000,-221682
6.333690167,109637278,3.266,-9.133,-0.617,0.000,0.000,0.000,-222867
6.33376325,109642498,3.266,-9.133,-0.617,0.000,0.000,0.000,-222808
6.333835875,109646719,3.266,-9.133,-0.617,0.000,0.000,0.000,-222423
6.333908459,109649939,3.227,-9.098,-0.539,0.000,0.000,0.000,-222741
6.333979959,109653159,3.227,-9.098,-0.539,0.000,0.000,0.000,-221952
6.339198209,109658380,3.227,-9.098,-0.539,0.000,0.000,0.000,-222480
6.366869042,109662601,3.227,-9.098,-0.539,0.000,0.000,0.000,-222155
6.366945875,109666821,3.227,-9.098,-0.539,0.000,0.000,0.000,-222643
6.367018459,109671042,3.227,-9.098,-0.539,0.000,0.000,0.000,-222680
6.367090542,109675262,3.227,-9.098,-0.539,0.000,0.000,0.000,-223349
6.36716225,109678482,3.266,-9.133,-0.539,0.000,0.000,0.000,-222942
6.367234209,109680703,3.266,-9.133,-0.539,0.000,0.000,0.000,-223360
6.367306167,109685924,3.266,-9.133,-0.539,0.000,0.000,0.000,-223673
6.370935959,109690144,3.266,-9.133,-0.539,0.000,0.000,0.000,-223599
6.374055,109693365,3.266,-9.133,-0.539,0.000,0.000,0.000,-222797
6.400208709,109698586,3.266,-9.133,-0.539,0.000,0.000,0.000,-221918
6.400280792,109703806,3.266,-9.133,-0.539,0.000,0.000,0.000,-222676
6.400352209,109708026,3.266,-9.133,-0.578,0.000,0.000,0.000,-222933
6.400444875,109710247,3.266,-9.133,-0.578,0.000,0.000,0.000,-223082
6.400516084,109715468,3.266,-9.133,-0.578,0.000,0.000,0.000,-222129
6.401489292,109720688,3.266,-9.133,-0.578,0.000,0.000,0.000,-222392
6.405711,109724909,3.266,-9.133,-0.578,0.000,0.000,0.000,-223276
6.409815875,109729130,3.266,-9.133,-0.578,0.000,0.000,0.000,-222310
6.433544167,109733350,3.266,-9.133,-0.578,0.000,0.000,0.000,-222244
6.433617542,109738571,3.227,-9.137,-0.578,0.000,0.000,0.000,-222456
6.433689209,109741792,3.227,-9.137,-0.578,0.000,0.000,0.000,-222853
6.4337615,109748013,3.227,-9.137,-0.578,0.000,0.000,0.000,-222971
6.433834459,109752233,3.227,-9.137,-0.578,0.000,0.000,0.000,-222912
6.437282667,109756454,3.227,-9.137,-0.578,0.000,0.000,0.000,-222062
6.441383459,109760675,3.227,-9.137,-0.578,0.000,0.000,0.000,-222712
6.4669285,109765896,3.227,-9.137,-0.578,0.000,0.000,0.000,-222127
6.467000917,109770117,3.266,-9.133,-0.656,0.000,0.000,0.000,-222420
6.467072584,109773337,3.266,-9.133,-0.656,0.000,0.000,0.000,-222742
6.467144667,109778557,3.266,-9.133,-0.656,0.000,0.000,0.000,-222265
6.467216417,109783777,3.266,-9.133,-0.656,0.000,0.000,0.000,-222274
6.46878475,109787997,3.266,-9.133,-0.656,0.000,0.000,0.000,-223189
6.473901917,109793218,3.266,-9.133,-0.656,0.000,0.000,0.000,-222531
6.500243667,109798438,3.266,-9.133,-0.656,0.000,0.000,0.000,-222280
6.50031475,109802658,3.266,-9.176,-0.578,0.000,0.000,0.000,-222145
6.500387042,109805879,3.266,-9.176,-0.578,0.000,0.000,0.000,-222803
6.500459792,109811100,3.266,-9.176,-0.578,0.000,0.000,0.000,-223377
6.500531792,109815322,3.266,-9.176,-0.578,0.000,0.000,0.000,-221807
6.50060325,109819542,3.266,-9.176,-0.578,0.000,0.000,0.000,-222390
6.505556584,109824763,3.266,-9.176,-0.578,0.000,0.000,0.000,-223421
6.533522459,109828983,3.266,-9.176,-0.578,0.000,0.000,0.000,-223295
6.533594334,109833204,3.266,-9.176,-0.539,0.000,0.000,0.000,-222168
6.533666125,109836424,3.266,-9.176,-0.539,0.000,0.000,0.000,-222706
6.533738167,109841644,3.266,-9.176,-0.539,0.000,0.000,0.000,-223067
6.533810709,109846865,3.266,-9.176,-0.539,0.000,0.000,0.000,-222609
6.533883292,109851085,3.266,-9.176,-0.539,0.000,0.000,0.000,-221759
6.53600275,109855305,3.266,-9.176,-0.539,0.000,0.000,0.000,-222337
6.539231959,109858526,3.266,-9.176,-0.539,0.000,0.000,0.000,-222844
6.566858917,109862746,3.266,-9.133,-0.656,0.000,0.000,0.000,-222384
6.566930459,109865966,3.266,-9.133,-0.656,0.000,0.000,0.000,-221517
6.567001917,109872186,3.266,-9.133,-0.656,0.000,0.000,0.000,-223027
6.5670735,109876406,3.266,-9.133,-0.656,0.000,0.000,0.000,-222949
6.567145084,109880627,3.266,-9.133,-0.656,0.000,0.000,0.000,-222283
6.569546417,109888847,3.266,-9.133,-0.656,0.000,0.000,0.000,-222759
6.573736042,109893067,3.266,-9.133,-0.656,0.000,0.000,0.000,-223248
6.600226,109897287,3.227,-9.137,-0.617,0.000,0.000,0.000,-222856
6.600299125,109899507,3.227,-9.137,-0.617,0.000,0.000,0.000,-222324
6.600370667,109905727,3.227,-9.137,-0.617,0.000,0.000,0.000,-223013
6.6004435,109909947,3.227,-9.137,-0.617,0.000,0.000,0.000,-223871
6.600515125,109913170,3.227,-9.137,-0.617,0.000,0.000,0.000,-222281
6.600586584,109917390,3.227,-9.137,-0.617,0.000,0.000,0.000,-222104
6.602416042,109921611,3.227,-9.137,-0.617,0.000,0.000,0.000,-223096
6.607581417,109926831,3.266,-9.133,-0.578,0.000,0.000,0.000,-222934
6.633539375,109930051,3.266,-9.133,-0.578,0.000,0.000,0.000,-223720
6.633620917,109935271,3.266,-9.133,-0.578,0.000,0.000,0.000,-222052
6.633701792,109939492,3.266,-9.133,-0.578,0.000,0.000,0.000,-222941
6.633782667,109944712,3.266,-9.133,-0.578,0.000,0.000,0.000,-222873
6.633857834,109948933,3.266,-9.133,-0.578,0.000,0.000,0.000,-221254
6.6339295,109953154,3.266,-9.133,-0.578,0.000,0.000,0.000,-221895
6.638089834,109957375,3.266,-9.133,-0.617,0.000,0.000,0.000,-222017
6.640392125,109959595,3.266,-9.133,-0.617,0.000,0.000,0.000,-222443
6.666898542,109963816,3.266,-9.133,-0.617,0.000,0.000,0.000,-222565
6.666971167,109969037,3.266,-9.133,-0.617,0.000,0.000,0.000,-221810
6.667043709,109973257,3.266,-9.133,-0.617,0.000,0.000,0.000,-222952
6.667115417,109978477,3.266,-9.133,-0.617,0.000,0.000,0.000,-223217
6.667196125,109982697,3.266,-9.133,-0.617,0.000,0.000,0.000,-222636
6.667620042,109986917,3.266,-9.133,-0.578,0.000,0.000,0.000,-222438
6.669913917,109989137,3.266,-9.133,-0.578,0.000,0.000,0.000,-222755
6.674049,109993357,3.266,-9.133,-0.578,0.000,0.000,0.000,-222122
6.700406667,109998578,3.266,-9.176,-0.578,0.000,0.000,0.000,-221394
6.700564167,110001798,3.266,-9.176,-0.578,0.000,0.000,0.000,-222342
6.700635459,110008018,3.266,-9.176,-0.578,0.000,0.000,0.000,-222419
6.700707709,110012238,3.266,-9.176,-0.578,0.000,0.000,0.000,-223115
6.700780042,110016459,3.266,-9.176,-0.578,0.000,0.000,0.000,-222677
6.701480292,110020679,3.266,-9.176,-0.578,0.000,0.000,0.000,-222603
6.706755875,110025900,3.266,-9.176,-0.578,0.000,0.000,0.000,-223390
6.73353875,110030121,3.227,-9.137,-0.578,0.000,0.000,0.000,-222981
6.733619084,110033342,3.227,-9.137,-0.578,0.000,0.000,0.000,-222882
6.733699792,110038563,3.227,-9.137,-0.578,0.000,0.000,0.000,-223125
6.733779792,110042783,3.227,-9.137,-0.578,0.000,0.000,0.000,-223902
6.733856042,110048004,3.227,-9.137,-0.578,0.000,0.000,0.000,-222130
6.733928042,110052225,3.227,-9.137,-0.578,0.000,0.000,0.000,-223179
6.737143709,110056445,3.227,-9.137,-0.578,0.000,0.000,0.000,-222146
6.767118834,110060665,3.227,-9.172,-0.578,0.000,0.000,0.000,-223229
6.767192417,110063886,3.227,-9.172,-0.578,0.000,0.000,0.000,-222882
6.767264334,110069106,3.227,-9.172,-0.578,0.000,0.000,0.000,-221882
6.76734375,110073326,3.227,-9.172,-0.578,0.000,0.000,0.000,-222981
6.767416375,110078547,3.227,-9.172,-0.578,0.000,0.000,0.000,-223263
6.767489709,110082767,3.227,-9.172,-0.578,0.000,0.000,0.000,-222815
6.768712709,110087988,3.227,-9.172,-0.578,0.000,0.000,0.000,-222835
6.773016,110092208,3.227,-9.137,-0.617,0.000,0.000,0.000,-222762
6.800402042,110095428,3.227,-9.137,-0.617,0.000,0.000,0.000,-222657
6.800579917,110100648,3.227,-9.137,-0.617,0.000,0.000,0.000,-222629
6.800650875,110105869,3.227,-9.137,-0.617,0.000,0.000,0.000,-222422
6.800722667,110111090,3.227,-9.137,-0.617,0.000,0.000,0.000,-222616
6.800794084,110116310,3.266,-9.133,-0.539,0.000,0.000,0.000,-222345
6.800865959,110119530,3.266,-9.133,-0.539,0.000,0.000,0.000,-223209
6.8065715,110125751,3.266,-9.133,-0.539,0.000,0.000,0.000,-222602
6.833559292,110129971,3.266,-9.133,-0.539,0.000,0.000,0.000,-222267
6.833639875,110134191,3.266,-9.133,-0.539,0.000,0.000,0.000,-222291
6.833721292,110138412,3.266,-9.133,-0.539,0.000,0.000,0.000,-222769
6.833801375,110144633,3.266,-9.133,-0.539,0.000,0.000,0.000,-222681
6.833876625,110149854,3.266,-9.133,-0.617,0.000,0.000,0.000,-222633
6.83394825,110153074,3.266,-9.133,-0.617,0.000,0.000,0.000,-222582
6.8400895,110159294,3.266,-9.133,-0.617,0.000,0.000,0.000,-222960
6.866911042,110163514,3.266,-9.133,-0.617,0.000,0.000,0.000,-221683
6.866984209,110166734,3.266,-9.133,-0.617,0.000,0.000,0.000,-223055
6.867056125,110170954,3.266,-9.133,-0.617,0.000,0.000,0.000,-222794
6.867128709,110175174,3.266,-9.133,-0.617,0.000,0.000,0.000,-223228
6.867201209,110179395,3.266,-9.133,-0.578,0.000,0.000,0.000,-222998
6.867273959,110182615,3.266,-9.133,-0.578,0.000,0.000,0.000,-222518
6.869625292,110188836,3.266,-9.133,-0.578,0.000,0.000,0.000,-222044
6.873859042,110193057,3.266,-9.133,-0.578,0.000,0.000,0.000,-222401
6.90019975,110197277,3.266,-9.133,-0.578,0.000,0.000,0.000,-222598
6.900279875,110201482,3.266,-9.133,-0.578,0.000,0.000,0.000,-222598
6.900357375,110206702,3.266,-9.133,-0.578,0.000,0.000,0.000,-223256
6.900428709,110210922,3.266,-9.176,-0.617,0.000,0.000,0.000,-222392
6.900500417,110214142,3.266,-9.176,-0.617,0.000,0.000,0.000,-222150
6.901084542,110220362,3.266,-9.176,-0.617,0.000,0.000,0.000,-222176
6.905279125,110224583,3.266,-9.176,-0.617,0.000,0.000,0.000,-222784
6.933777167,110228803,3.266,-9.176,-0.617,0.000,0.000,0.000,-222368
6.933851292,110233023,3.266,-9.176,-0.617,0.000,0.000,0.000,-221725
6.933922459,110236243,3.266,-9.176,-0.617,0.000,0.000,0.000,-221945
6.933994209,110240464,3.191,-9.176,-0.617,0.000,0.000,0.000,-223478
6.934090209,110243685,3.191,-9.176,-0.617,0.000,0.000,0.000,-222644
6.934161792,110248906,3.191,-9.176,-0.617,0.000,0.000,0.000,-221667
6.934234292,110253127,3.191,-9.176,-0.617,0.000,0.000,0.000,-222728
6.939064625,110258347,3.191,-9.176,-0.617,0.000,0.000,0.000,-223502
6.967085959,110263567,3.191,-9.176,-0.617,0.000,0.000,0.000,-222080
6.967247084,110267787,3.191,-9.176,-0.617,0.000,0.000,0.000,-222381
6.9673195,110272007,3.266,-9.176,-0.539,0.000,0.000,0.000,-223670
6.967391042,110275227,3.266,-9.176,-0.539,0.000,0.000,0.000,-222743
6.9674625,110281448,3.266,-9.176,-0.539,0.000,0.000,0.000,-222699
6.967534667,110286668,3.266,-9.176,-0.539,0.000,0.000,0.000,-222888
6.971708667,110290889,3.266,-9.176,-0.539,0.000,0.000,0.000,-223077
7.000463167,110296110,3.266,-9.176,-0.539,0.000,0.000,0.000,-223347
7.000537667,110300330,3.266,-9.176,-0.617,0.000,0.000,0.000,-222345
7.000610917,110302551,3.266,-9.176,-0.617,0.000,0.000,0.000,-222088
7.000683209,110307772,3.266,-9.176,-0.617,0.000,0.000,0.000,-222991
7.000756417,110311993,3.266,-9.176,-0.617,0.000,0.000,0.000,-223326
7.000828667,110316214,3.266,-9.176,-0.617,0.000,0.000,0.000,-222739
7.001140667,110320435,3.266,-9.176,-0.617,0.000,0.000,0.000,-221868
7.00637525,110325656,3.266,-9.176,-0.617,0.000,0.000,0.000,-223324
7.00969775,110328877,3.266,-9.133,-0.656,0.000,0.000,0.000,-222403
7.033575542,110332097,3.266,-9.133,-0.656,0.000,0.000,0.000,-222565
7.033650959,110338319,3.266,-9.133,-0.656,0.000,0.000,0.000,-223259
7.033723459,110342539,3.266,-9.133,-0.656,0.000,0.000,0.000,-223678
7.033796584,110346760,3.266,-9.133,-0.656,0.000,0.000,0.000,-222187
7.033869584,110350980,3.266,-9.133,-0.656,0.000,0.000,0.000,-222099
7.036930042,110356200,3.266,-9.133,-0.656,0.000,0.000,0.000,-223379
7.041116667,110360421,3.227,-9.172,-0.578,0.000,0.000,0.000,-222874
7.066913917,110363642,3.227,-9.172,-0.578,0.000,0.000,0.000,-223020
7.0669865,110369862,3.227,-9.172,-0.578,0.000,0.000,0.000,-222254
7.067058834,110374082,3.227,-9.172,-0.578,0.000,0.000,0.000,-222985
7.06713125,110378302,3.227,-9.172,-0.578,0.000,0.000,0.000,-222331
7.067202875,110383522,3.227,-9.172,-0.578,0.000,0.000,0.000,-221783
7.069460542,110388743,3.227,-9.172,-0.578,0.000,0.000,0.000,-221830
7.072673042,110391964,3.266,-9.176,-0.617,0.000,0.000,0.000,-223201
7.100268209,110394184,3.266,-9.176,-0.617,0.000,0.000,0.000,-223362
7.100339959,110401404,3.266,-9.176,-0.617,0.000,0.000,0.000,-222170
7.100411625,110406624,3.266,-9.176,-0.617,0.000,0.000,0.000,-222681
7.100484375,110410845,3.266,-9.176,-0.617,0.000,0.000,0.000,-222740
7.100555959,110416066,3.266,-9.176,-0.617,0.000,0.000,0.000,-222384
7.102141584,110421287,3.266,-9.133,-0.578,0.000,0.000,0.000,-222010
7.105320917,110424508,3.266,-9.133,-0.578,0.000,0.000,0.000,-222605
7.133533167,110429729,3.266,-9.133,-0.578,0.000,0.000,0.000,-223127
7.133605167,110433950,3.266,-9.133,-0.578,0.000,0.000,0.000,-222319
7.13367675,110438170,3.266,-9.133,-0.578,0.000,0.000,0.000,-222909
7.133747292,110443390,3.266,-9.133,-0.578,0.000,0.000,0.000,-223186
7.133817959,110448610,3.227,-9.137,-0.617,0.000,0.000,0.000,-222642
7.133888375,110450831,3.227,-9.137,-0.617,0.000,0.000,0.000,-222586
7.136823834,110456051,3.227,-9.137,-0.617,0.000,0.000,0.000,-222884
7.14095275,110460272,3.227,-9.137,-0.617,0.000,0.000,0.000,-222385
7.166909667,110465492,3.227,-9.137,-0.617,0.000,0.000,0.000,-222304
7.166981834,110469712,3.266,-9.133,-0.617,0.000,0.000,0.000,-222126
7.167054625,110472932,3.266,-9.133,-0.617,0.000,0.000,0.000,-221850
7.167126375,110478153,3.266,-9.133,-0.617,0.000,0.000,0.000,-222727
7.167199,110482373,3.266,-9.133,-0.617,0.000,0.000,0.000,-221843
7.167280375,110486593,3.266,-9.133,-0.617,0.000,0.000,0.000,-222504
7.171614542,110490814,3.266,-9.133,-0.617,0.000,0.000,0.000,-223675
7.20024,110494035,3.266,-9.133,-0.617,0.000,0.000,0.000,-222332
7.20031425,110498255,3.227,-9.137,-0.578,0.000,0.000,0.000,-222856
7.200386875,110501476,3.227,-9.137,-0.578,0.000,0.000,0.000,-222757
7.20045975,110507697,3.227,-9.137,-0.578,0.000,0.000,0.000,-223003
7.200531417,110511917,3.227,-9.137,-0.578,0.000,0.000,0.000,-223209
7.20060425,110516138,3.227,-9.137,-0.578,0.000,0.000,0.000,-222503
7.202082584,110521358,3.227,-9.137,-0.578,0.000,0.000,0.000,-223786
7.206311167,110525578,3.227,-9.137,-0.578,0.000,0.000,0.000,-224304
7.20964825,110528798,3.227,-9.137,-0.656,0.000,0.000,0.000,-222939
7.233801292,110531018,3.227,-9.137,-0.656,0.000,0.000,0.000,-222830
7.233875959,110536239,3.227,-9.137,-0.656,0.000,0.000,0.000,-222137
7.233948709,110541460,3.227,-9.137,-0.656,0.000,0.000,0.000,-223335
7.234022084,110546680,3.227,-9.137,-0.656,0.000,0.000,0.000,-222299
7.23409475,110550900,3.227,-9.137,-0.656,0.000,0.000,0.000,-222825
7.235931209,110555120,3.227,-9.137,-0.656,0.000,0.000,0.000,-223240
7.240200542,110559341,3.266,-9.176,-0.539,0.000,0.000,0.000,-223267
7.2670415,110562561,3.266,-9.176,-0.539,0.000,0.000,0.000,-222865
7.267219834,110568766,3.266,-9.176,-0.539,0.000,0.000,0.000,-222865
7.267292084,110572986,3.266,-9.176,-0.539,0.000,0.000,0.000,-222851
7.267363709,110576206,3.266,-9.176,-0.539,0.000,0.000,0.000,-222869
7.267435417,110581426,3.266,-9.176,-0.539,0.000,0.000,0.000,-222490
7.26750775,110586647,3.266,-9.133,-0.617,0.000,0.000,0.000,-222532
7.270610709,110589867,3.266,-9.133,-0.617,0.000,0.000,0.000,-222502
7.300183084,110595087,3.266,-9.133,-0.617,0.000,0.000,0.000,-221820
7.300254417,110599309,3.266,-9.133,-0.617,0.000,0.000,0.000,-222661
7.300342375,110604530,3.266,-9.133,-0.617,0.000,0.000,0.000,-223218
7.300414125,110608751,3.266,-9.133,-0.617,0.000,0.000,0.000,-222812
7.300486459,110612971,3.266,-9.133,-0.617,0.000,0.000,0.000,-222998
7.300563084,110618192,3.227,-9.137,-0.656,0.000,0.000,0.000,-222303
7.302271042,110621412,3.227,-9.137,-0.656,0.000,0.000,0.000,-222859
7.308320042,110627618,3.227,-9.137,-0.656,0.000,0.000,0.000,-222859
7.333529792,110631838,3.227,-9.137,-0.656,0.000,0.000,0.000,-222492
7.333602542,110636058,3.227,-9.137,-0.656,0.000,0.000,0.000,-222320
7.333675125,110640279,3.227,-9.137,-0.656,0.000,0.000,0.000,-223332
7.3337465,110647501,3.227,-9.137,-0.656,0.000,0.000,0.000,-222502
7.333818917,110651721,3.266,-9.133,-0.500,0.000,0.000,0.000,-221960
7.335740584,110654942,3.266,-9.133,-0.500,0.000,0.000,0.000,-222425
7.366856,110661163,3.266,-9.133,-0.500,0.000,0.000,0.000,-223475
7.366926417,110665384,3.266,-9.133,-0.500,0.000,0.000,0.000,-222603
7.367001875,110669605,3.266,-9.133,-0.500,0.000,0.000,0.000,-221943
7.367072667,110673825,3.266,-9.133,-0.500,0.000,0.000,0.000,-222471
7.3671455,110679046,3.266,-9.133,-0.500,0.000,0.000,0.000,-222870
7.367221459,110683266,3.266,-9.133,-0.578,0.000,0.000,0.000,-222941
7.367293834,110686486,3.266,-9.133,-0.578,0.000,0.000,0.000,-222280
7.373494042,110692707,3.266,-9.133,-0.578,0.000,0.000,0.000,-222255
7.40021275,110696927,3.266,-9.133,-0.578,0.000,0.000,0.000,-222519
7.400296542,110701148,3.266,-9.133,-0.578,0.000,0.000,0.000,-222760
7.400374,110706368,3.266,-9.133,-0.578,0.000,0.000,0.000,-223135
7.400445084,110710589,3.266,-9.133,-0.578,0.000,0.000,0.000,-222878
7.400517584,110714809,3.227,-9.098,-0.578,0.000,0.000,0.000,-223087
7.400592542,110718029,3.227,-9.098,-0.578,0.000,0.000,0.000,-221751
7.405059709,110724250,3.227,-9.098,-0.578,0.000,0.000,0.000,-222311
7.410161917,110729471,3.227,-9.098,-0.578,0.000,0.000,0.000,-223234
7.43353975,110733691,3.227,-9.098,-0.578,0.000,0.000,0.000,-222263
7.433618042,110737911,3.227,-9.098,-0.578,0.000,0.000,0.000,-222829
7.433698417,110742131,3.227,-9.098,-0.578,0.000,0.000,0.000,-223052
7.433777417,110747352,3.266,-9.133,-0.617,0.000,0.000,0.000,-222632
7.433856917,110750572,3.266,-9.133,-0.617,0.000,0.000,0.000,-222269
7.436586334,110755793,3.266,-9.133,-0.617,0.000,0.000,0.000,-224058
7.440835667,110760014,3.266,-9.133,-0.617,0.000,0.000,0.000,-223698
7.467000167,110763234,3.266,-9.133,-0.617,0.000,0.000,0.000,-223441
7.467192042,110768455,3.266,-9.133,-0.617,0.000,0.000,0.000,-223113
7.467263959,110772675,3.266,-9.133,-0.617,0.000,0.000,0.000,-223263
7.467335584,110776895,3.227,-9.172,-0.656,0.000,0.000,0.000,-223232
7.46742725,110779116,3.227,-9.172,-0.656,0.000,0.000,0.000,-222579
7.467499375,110783337,3.227,-9.172,-0.656,0.000,0.000,0.000,-222332
7.468368459,110787557,3.227,-9.172,-0.656,0.000,0.000,0.000,-222931
7.471603875,110790778,3.227,-9.172,-0.656,0.000,0.000,0.000,-223224
7.500215834,110795999,3.227,-9.172,-0.656,0.000,0.000,0.000,-222472
7.500298625,110800220,3.227,-9.172,-0.656,0.000,0.000,0.000,-222360
7.500379834,110806440,3.305,-9.211,-0.578,0.000,0.000,0.000,-223204
7.500453584,110808660,3.305,-9.211,-0.578,0.000,0.000,0.000,-223901
7.500525167,110813880,3.305,-9.211,-0.578,0.000,0.000,0.000,-222548
7.500597584,110818100,3.305,-9.211,-0.578,0.000,0.000,0.000,-222148
7.50309925,110822320,3.305,-9.211,-0.578,0.000,0.000,0.000,-222301
7.507270834,110826541,3.305,-9.211,-0.578,0.000,0.000,0.000,-223443
7.533715667,110830761,3.305,-9.211,-0.578,0.000,0.000,0.000,-222561
7.533839042,110834981,3.227,-9.137,-0.617,0.000,0.000,0.000,-222520
7.533909959,110838201,3.227,-9.137,-0.617,0.000,0.000,0.000,-222552
7.533981084,110844422,3.227,-9.137,-0.617,0.000,0.000,0.000,-223054
7.534052417,110848643,3.227,-9.137,-0.617,0.000,0.000,0.000,-222826
7.534122959,110851849,3.227,-9.137,-0.617,0.000,0.000,0.000,-222826
7.536838417,110856069,3.227,-9.137,-0.617,0.000,0.000,0.000,-222791
7.540973875,110860289,3.227,-9.137,-0.617,0.000,0.000,0.000,-223520
7.566854125,110864510,3.266,-9.094,-0.617,0.000,0.000,0.000,-222438
7.566925209,110866730,3.266,-9.094,-0.617,0.000,0.000,0.000,-222108
7.566995917,110871950,3.266,-9.094,-0.617,0.000,0.000,0.000,-222615
7.567067459,110876171,3.266,-9.094,-0.617,0.000,0.000,0.000,-222696
7.567139417,110879391,3.266,-9.094,-0.617,0.000,0.000,0.000,-222211
7.567211834,110883611,3.266,-9.094,-0.617,0.000,0.000,0.000,-222880
7.569641292,110888831,3.266,-9.094,-0.617,0.000,0.000,0.000,-222530
7.573858917,110893051,3.266,-9.176,-0.578,0.000,0.000,0.000,-223789
7.600199959,110896271,3.266,-9.176,-0.578,0.000,0.000,0.000,-222174
7.600272167,110903491,3.266,-9.176,-0.578,0.000,0.000,0.000,-222006
7.600343417,110907711,3.266,-9.176,-0.578,0.000,0.000,0.000,-222614
7.600415417,110910931,3.266,-9.176,-0.578,0.000,0.000,0.000,-222572
7.600486292,110916152,3.266,-9.176,-0.578,0.000,0.000,0.000,-222162
7.60206425,110921373,3.266,-9.176,-0.578,0.000,0.000,0.000,-222087
7.607300417,110926594,3.227,-9.172,-0.617,0.000,0.000,0.000,-223688
7.609533709,110928814,3.227,-9.172,-0.617,0.000,0.000,0.000,-223272
7.633519042,110934035,3.227,-9.172,-0.617,0.000,0.000,0.000,-222037
7.633590709,110938255,3.227,-9.172,-0.617,0.000,0.000,0.000,-223370
7.633661125,110942475,3.227,-9.172,-0.617,0.000,0.000,0.000,-222532
7.633731625,110946696,3.227,-9.172,-0.617,0.000,0.000,0.000,-222596
7.633802,110950916,3.227,-9.172,-0.617,0.000,0.000,0.000,-222407
7.635147,110954137,3.266,-9.133,-0.617,0.000,0.000,0.000,-222425
7.637105292,110956358,3.266,-9.133,-0.617,0.000,0.000,0.000,-223740
7.666859,110961578,3.266,-9.133,-0.617,0.000,0.000,0.000,-221905
7.666929667,110965799,3.266,-9.133,-0.617,0.000,0.000,0.000,-223179
7.667000167,110971020,3.266,-9.133,-0.617,0.000,0.000,0.000,-222689
7.667070625,110975241,3.266,-9.133,-0.617,0.000,0.000,0.000,-222613
7.667141917,110979461,3.266,-9.133,-0.617,0.000,0.000,0.000,-223284
7.667212167,110983682,3.266,-9.133,-0.617,0.000,0.000,0.000,-222301
7.667590334,110986902,3.266,-9.133,-0.617,0.000,0.000,0.000,-222217
7.672921875,110992123,3.266,-9.133,-0.617,0.000,0.000,0.000,-223181
7.700198,110996343,3.266,-9.133,-0.617,0.000,0.000,0.000,-223123
7.70027075,110999564,3.266,-9.133,-0.617,0.000,0.000,0.000,-222342
7.700343875,111004784,3.266,-9.133,-0.617,0.000,0.000,0.000,-223390
7.700420209,111010005,3.266,-9.133,-0.617,0.000,0.000,0.000,-223244
7.700493,111013225,3.266,-9.172,-0.691,0.000,0.000,0.000,-222162
7.700565459,111016446,3.266,-9.172,-0.691,0.000,0.000,0.000,-222605
7.702477167,111021667,3.266,-9.172,-0.691,0.000,0.000,0.000,-221973
7.707651292,111026888,3.266,-9.172,-0.691,0.000,0.000,0.000,-222357
7.733538417,111031109,3.266,-9.172,-0.691,0.000,0.000,0.000,-222702
7.733611875,111036329,3.266,-9.172,-0.691,0.000,0.000,0.000,-222067
7.733684459,111041549,3.266,-9.172,-0.691,0.000,0.000,0.000,-222904
7.733756667,111046770,3.266,-9.133,-0.578,0.000,0.000,0.000,-222168
7.733828625,111048990,3.266,-9.133,-0.578,0.000,0.000,0.000,-223305
7.735009792,111054210,3.266,-9.133,-0.578,0.000,0.000,0.000,-223409
7.739183042,111058430,3.266,-9.133,-0.578,0.000,0.000,0.000,-222632
7.766865917,111062650,3.266,-9.133,-0.578,0.000,0.000,0.000,-223396
7.766938917,111067871,3.266,-9.133,-0.578,0.000,0.000,0.000,-221829
7.7670115,111072092,3.266,-9.133,-0.578,0.000,0.000,0.000,-222390
7.767084,111076312,3.191,-9.133,-0.578,0.000,0.000,0.000,-223364
7.767155625,111079532,3.191,-9.133,-0.578,0.000,0.000,0.000,-222706
7.7672335,111085753,3.191,-9.133,-0.578,0.000,0.000,0.000,-222258
7.771773459,111090974,3.191,-9.133,-0.578,0.000,0.000,0.000,-223522
7.774885334,111094195,3.191,-9.133,-0.578,0.000,0.000,0.000,-223759
7.800201584,111099415,3.191,-9.133,-0.578,0.000,0.000,0.000,-222875
7.800273375,111104636,3.191,-9.133,-0.578,0.000,0.000,0.000,-223043
7.800344875,111108857,3.266,-9.133,-0.617,0.000,0.000,0.000,-222778
7.80041775,111111078,3.266,-9.133,-0.617,0.000,0.000,0.000,-222404
7.8004895,111115299,3.266,-9.133,-0.617,0.000,0.000,0.000,-222067
7.800561292,111119519,3.266,-9.133,-0.617,0.000,0.000,0.000,-222382
7.80444675,111123740,3.266,-9.133,-0.617,0.000,0.000,0.000,-222968
7.833534625,111128960,3.266,-9.133,-0.617,0.000,0.000,0.000,-223362
7.83360775,111134181,3.266,-9.133,-0.617,0.000,0.000,0.000,-222160
7.833680542,111138402,3.227,-9.137,-0.539,0.000,0.000,0.000,-223104
7.833752959,111140622,3.227,-9.137,-0.539,0.000,0.000,0.000,-222822
7.833825292,111146842,3.227,-9.137,-0.539,0.000,0.000,0.000,-223456
7.83390375,111151063,3.227,-9.137,-0.539,0.000,0.000,0.000,-222485
7.836043417,111155283,3.227,-9.137,-0.539,0.000,0.000,0.000,-223020
7.840184375,111159503,3.227,-9.137,-0.539,0.000,0.000,0.000,-223065
7.86687075,111163723,3.227,-9.137,-0.539,0.000,0.000,0.000,-222728
7.866944,111168943,3.266,-9.133,-0.578,0.000,0.000,0.000,-222197
7.867020209,111172163,3.266,-9.133,-0.578,0.000,0.000,0.000,-222541
7.867092125,111177383,3.266,-9.133,-0.578,0.000,0.000,0.000,-223045
7.867164375,111181603,3.266,-9.133,-0.578,0.000,0.000,0.000,-222311
7.867550625,111186824,3.266,-9.133,-0.578,0.000,0.000,0.000,-222846
7.871841959,111191044,3.266,-9.133,-0.578,0.000,0.000,0.000,-223748
7.900222417,111195266,3.266,-9.133,-0.578,0.000,0.000,0.000,-222644
7.900302334,111199487,3.266,-9.133,-0.617,0.000,0.000,0.000,-221657
7.900374,111201707,3.266,-9.133,-0.617,0.000,0.000,0.000,-221951
7.900445584,111206927,3.266,-9.133,-0.617,0.000,0.000,0.000,-222351
7.900517042,111211148,3.266,-9.133,-0.617,0.000,0.000,0.000,-222785
7.900588667,111214368,3.266,-9.133,-0.617,0.000,0.000,0.000,-222210
7.9006605,111218589,3.266,-9.133,-0.617,0.000,0.000,0.000,-222204
7.903602667,111222810,3.266,-9.133,-0.617,0.000,0.000,0.000,-222597
7.908048959,111227031,3.266,-9.133,-0.617,0.000,0.000,0.000,-222376
7.933512792,111229252,3.266,-9.133,-0.617,0.000,0.000,0.000,-222944
7.933585292,111233473,3.266,-9.133,-0.617,0.000,0.000,0.000,-222569
7.933657709,111237693,3.266,-9.133,-0.617,0.000,0.000,0.000,-222388
7.933730375,111241914,3.266,-9.133,-0.617,0.000,0.000,0.000,-223098
7.933802875,111247134,3.266,-9.133,-0.617,0.000,0.000,0.000,-222240
7.933875167,111251354,3.266,-9.133,-0.617,0.000,0.000,0.000,-222809
7.935376584,111254575,3.305,-9.176,-0.617,0.000,0.000,0.000,-223263
7.937601709,111256796,3.305,-9.176,-0.617,0.000,0.000,0.000,-222463
7.941847584,111261016,3.305,-9.176,-0.617,0.000,0.000,0.000,-223042
7.966896417,111265237,3.305,-9.176,-0.617,0.000,0.000,0.000,-222720
7.966968875,111269458,3.305,-9.176,-0.617,0.000,0.000,0.000,-223815
7.9670405,111273678,3.305,-9.176,-0.617,0.000,0.000,0.000,-222886
7.967111875,111277899,3.305,-9.176,-0.617,0.000,0.000,0.000,-223658
7.967183792,111281119,3.266,-9.176,-0.578,0.000,0.000,0.000,-223006
7.967255334,111284340,3.266,-9.176,-0.578,0.000,0.000,0.000,-222606
7.97028575,111289561,3.266,-9.176,-0.578,0.000,0.000,0.000,-222855
7.975539334,111294782,3.266,-9.176,-0.578,0.000,0.000,0.000,-222338
8.000211042,111299003,3.266,-9.176,-0.578,0.000,0.000,0.000,-222269
8.000290625,111304224,3.266,-9.176,-0.578,0.000,0.000,0.000,-221970
8.000370125,111308444,3.266,-9.176,-0.578,0.000,0.000,0.000,-222320
8.000447125,111312665,3.266,-9.133,-0.656,0.000,0.000,0.000,-222238
8.000517834,111315885,3.266,-9.133,-0.656,0.000,0.000,0.000,-222081
8.003012875,111322106,3.266,-9.133,-0.656,0.000,0.000,0.000,-223332
8.00713675,111326326,3.266,-9.133,-0.656,0.000,0.000,0.000,-223045
8.010343084,111329547,3.266,-9.133,-0.656,0.000,0.000,0.000,-222954
8.033534209,111333767,3.266,-9.133,-0.656,0.000,0.000,0.000,-222424
8.033607084,111338987,3.266,-9.133,-0.656,0.000,0.000,0.000,-222788
8.033679375,111342207,3.266,-9.094,-0.656,0.000,0.000,0.000,-223100
8.03375125,111345428,3.266,-9.094,-0.656,0.000,0.000,0.000,-222413
8.033822667,111351648,3.266,-9.094,-0.656,0.000,0.000,0.000,-222999
8.0366225,111355869,3.266,-9.094,-0.656,0.000,0.000,0.000,-222678
8.040906375,111360091,3.266,-9.094,-0.656,0.000,0.000,0.000,-222585
8.067040875,111364312,3.266,-9.094,-0.656,0.000,0.000,0.000,-222666
8.067180875,111369533,3.266,-9.094,-0.656,0.000,0.000,0.000,-222457
8.067252292,111373753,3.266,-9.133,-0.578,0.000,0.000,0.000,-223492
8.067323375,111376974,3.266,-9.133,-0.578,0.000,0.000,0.000,-223236
8.067394709,111382194,3.266,-9.133,-0.578,0.000,0.000,0.000,-221458
8.068239334,111387414,3.266,-9.133,-0.578,0.000,0.000,0.000,-222840
8.072372417,111391620,3.266,-9.133,-0.578,0.000,0.000,0.000,-222840
8.100210834,111398840,3.266,-9.133,-0.578,0.000,0.000,0.000,-222405
8.100289042,111404060,3.266,-9.133,-0.578,0.000,0.000,0.000,-222557
8.100365167,111409280,3.227,-9.094,-0.691,0.000,0.000,0.000,-222955
8.100451875,111412500,3.227,-9.094,-0.691,0.000,0.000,0.000,-222977
8.100525292,111418721,3.227,-9.094,-0.691,0.000,0.000,0.000,-222455
8.103696792,111422941,3.227,-9.094,-0.691,0.000,0.000,0.000,-222632
8.133519167,111427162,3.227,-9.094,-0.691,0.000,0.000,0.000,-222735
8.133594084,111431383,3.227,-9.094,-0.691,0.000,0.000,0.000,-221992
8.133666084,111435603,3.227,-9.094,-0.691,0.000,0.000,0.000,-222129
8.1337455,111439823,3.305,-9.176,-0.578,0.000,0.000,0.000,-223278
8.13382625,111442043,3.305,-9.176,-0.578,0.000,0.000,0.000,-222841
8.133906459,111447263,3.305,-9.176,-0.578,0.000,0.000,0.000,-223217
8.133990042,111451483,3.305,-9.176,-0.578,0.000,0.000,0.000,-222602
8.137524375,111456706,3.305,-9.176,-0.578,0.000,0.000,0.000,-222221
8.142693917,111461926,3.305,-9.176,-0.578,0.000,0.000,0.000,-223038
8.167136167,111467147,3.305,-9.176,-0.578,0.000,0.000,0.000,-222732
8.167208917,111471367,3.266,-9.176,-0.539,0.000,0.000,0.000,-223326
8.167281,111473587,3.266,-9.176,-0.539,0.000,0.000,0.000,-222123
8.167353417,111477808,3.266,-9.176,-0.539,0.000,0.000,0.000,-223227
8.167427167,111482028,3.266,-9.176,-0.539,0.000,0.000,0.000,-222519
8.168003334,111487248,3.266,-9.176,-0.539,0.000,0.000,0.000,-223022
8.172287167,111491468,3.266,-9.176,-0.539,0.000,0.000,0.000,-223498
8.200446625,111495688,3.266,-9.176,-0.539,0.000,0.000,0.000,-222794
8.200519084,111498909,3.266,-9.176,-0.617,0.000,0.000,0.000,-222037
8.200590917,111501130,3.266,-9.176,-0.617,0.000,0.000,0.000,-222460
8.200662875,111506350,3.266,-9.176,-0.617,0.000,0.000,0.000,-222699
8.200734667,111511571,3.266,-9.176,-0.617,0.000,0.000,0.000,-223128
8.200806334,111515792,3.266,-9.133,-0.617,0.000,0.000,0.000,-222201
8.200880209,111518012,3.266,-9.133,-0.617,0.000,0.000,0.000,-221874
8.203063084,111522233,3.266,-9.133,-0.617,0.000,0.000,0.000,-223081
8.208175,111527453,3.266,-9.133,-0.617,0.000,0.000,0.000,-223286
8.233573875,111531674,3.266,-9.133,-0.617,0.000,0.000,0.000,-221509
8.233646584,111535894,3.266,-9.133,-0.617,0.000,0.000,0.000,-222261
8.233718042,111541115,3.266,-9.133,-0.617,0.000,0.000,0.000,-222049
8.233789709,111546335,3.266,-9.133,-0.617,0.000,0.000,0.000,-222671
8.233861292,111549555,3.266,-9.133,-0.617,0.000,0.000,0.000,-222671
8.235581459,111554775,3.266,-9.133,-0.617,0.000,0.000,0.000,-222523
8.239715792,111558995,3.266,-9.133,-0.617,0.000,0.000,0.000,-222383
8.266870125,111562216,3.266,-9.133,-0.617,0.000,0.000,0.000,-222247
8.266949959,111567436,3.266,-9.133,-0.617,0.000,0.000,0.000,-222504
8.267021542,111571657,3.266,-9.133,-0.617,0.000,0.000,0.000,-223443
8.267094125,111574877,3.227,-9.137,-0.578,0.000,0.000,0.000,-222339
8.267165917,111579099,3.227,-9.137,-0.578,0.000,0.000,0.000,-222845
8.267237042,111582319,3.305,-9.176,-0.539,0.000,0.000,0.000,-222199
8.268355209,111587539,3.305,-9.176,-0.539,0.000,0.000,0.000,-223302
8.272559625,111591759,3.305,-9.176,-0.539,0.000,0.000,0.000,-223043
8.300207292,111595979,3.305,-9.176,-0.539,0.000,0.000,0.000,-222092
8.300278417,111600199,3.305,-9.176,-0.539,0.000,0.000,0.000,-221829
8.300350459,111604420,3.305,-9.176,-0.539,0.000,0.000,0.000,-222985
8.300422417,111609640,3.227,-9.137,-0.617,0.000,0.000,0.000,-223303
8.300494667,111612861,3.227,-9.137,-0.617,0.000,0.000,0.000,-222869
8.300566625,111618083,3.227,-9.137,-0.617,0.000,0.000,0.000,-222987
8.303103084,111622304,3.227,-9.137,-0.617,0.000,0.000,0.000,-223159
8.308326625,111627524,3.227,-9.137,-0.617,0.000,0.000,0.000,-222829
8.33359775,111631745,3.227,-9.137,-0.617,0.000,0.000,0.000,-222326
8.33367225,111635966,3.227,-9.137,-0.617,0.000,0.000,0.000,-222732
8.333752334,111639186,3.227,-9.137,-0.656,0.000,0.000,0.000,-223144
8.33383275,111642406,3.227,-9.137,-0.656,0.000,0.000,0.000,-222199
8.333917625,111648626,3.227,-9.137,-0.656,0.000,0.000,0.000,-221923
8.333995292,111652846,3.227,-9.137,-0.656,0.000,0.000,0.000,-223163
8.338910125,111658067,3.227,-9.137,-0.656,0.000,0.000,0.000,-222575
8.36687375,111662287,3.227,-9.137,-0.656,0.000,0.000,0.000,-222671
8.366957459,111666507,3.227,-9.137,-0.656,0.000,0.000,0.000,-222930
8.367029417,111670728,3.305,-9.176,-0.578,0.000,0.000,0.000,-222482
8.367100875,111672948,3.305,-9.176,-0.578,0.000,0.000,0.000,-222573
8.367171959,111678168,3.305,-9.176,-0.578,0.000,0.000,0.000,-222958
8.367244084,111682388,3.305,-9.176,-0.578,0.000,0.000,0.000,-221443
8.36731575,111686609,3.305,-9.176,-0.578,0.000,0.000,0.000,-221990
8.371662084,111690830,3.305,-9.176,-0.578,0.000,0.000,0.000,-222799
8.374837875,111694050,3.305,-9.176,-0.578,0.000,0.000,0.000,-222629
8.400172084,111698270,3.227,-9.137,-0.578,0.000,0.000,0.000,-221687
8.40024475,111701490,3.227,-9.137,-0.578,0.000,0.000,0.000,-222390
8.400324542,111707710,3.227,-9.137,-0.578,0.000,0.000,0.000,-222621
8.400404375,111710930,3.227,-9.137,-0.578,0.000,0.000,0.000,-222142
8.400482959,111715150,3.227,-9.137,-0.578,0.000,0.000,0.000,-222752
8.401107125,111720355,3.227,-9.137,-0.578,0.000,0.000,0.000,-222752
8.405388875,111724575,3.227,-9.137,-0.578,0.000,0.000,0.000,-223046
8.410496709,111729796,3.266,-9.133,-0.578,0.000,0.000,0.000,-223486
8.433592834,111733016,3.266,-9.133,-0.578,0.000,0.000,0.000,-221860
8.433664417,111739236,3.266,-9.133,-0.578,0.000,0.000,0.000,-222726
8.433735792,111743457,3.266,-9.133,-0.578,0.000,0.000,0.000,-222529
8.433807542,111747677,3.266,-9.133,-0.578,0.000,0.000,0.000,-222488
8.433879,111751899,3.266,-9.133,-0.578,0.000,0.000,0.000,-222441
8.436902709,111756119,3.266,-9.133,-0.578,0.000,0.000,0.000,-222163
8.44206025,111761340,3.227,-9.172,-0.617,0.000,0.000,0.000,-222490
8.466909959,111764560,3.227,-9.172,-0.617,0.000,0.000,0.000,-222081
8.466982459,111770781,3.227,-9.172,-0.617,0.000,0.000,0.000,-222619
8.467053625,111775002,3.227,-9.172,-0.617,0.000,0.000,0.000,-222724
8.467124875,111779222,3.227,-9.172,-0.617,0.000,0.000,0.000,-222512
8.46719575,111783442,3.227,-9.172,-0.617,0.000,0.000,0.000,-221674
8.469386042,111788662,3.227,-9.172,-0.617,0.000,0.000,0.000,-222489
8.473693625,111792883,3.266,-9.133,-0.578,0.000,0.000,0.000,-222547
8.500220792,111796103,3.266,-9.133,-0.578,0.000,0.000,0.000,-222291
8.500292625,111802323,3.266,-9.133,-0.578,0.000,0.000,0.000,-222449
8.500364667,111807544,3.266,-9.133,-0.578,0.000,0.000,0.000,-223452
8.500436209,111811765,3.266,-9.133,-0.578,0.000,0.000,0.000,-222069
8.50052525,111816986,3.266,-9.133,-0.578,0.000,0.000,0.000,-221511
8.500941542,111820206,3.266,-9.176,-0.617,0.000,0.000,0.000,-222723
8.50322875,111822427,3.266,-9.176,-0.617,0.000,0.000,0.000,-222243
8.509462125,111828648,3.266,-9.176,-0.617,0.000,0.000,0.000,-222585
8.533531834,111832869,3.266,-9.176,-0.617,0.000,0.000,0.000,-222148
8.533604042,111837089,3.266,-9.176,-0.617,0.000,0.000,0.000,-222607
8.533675375,111841309,3.266,-9.176,-0.617,0.000,0.000,0.000,-222770
8.533746375,111846530,3.266,-9.133,-0.617,0.000,0.000,0.000,-222504
8.533818209,111848750,3.266,-9.133,-0.617,0.000,0.000,0.000,-222024
8.534774167,111853971,3.266,-9.133,-0.617,0.000,0.000,0.000,-222309
8.538999209,111858191,3.266,-9.133,-0.617,0.000,0.000,0.000,-223302
8.542109542,111861412,3.266,-9.133,-0.617,0.000,0.000,0.000,-222456
8.5668635,111866632,3.266,-9.133,-0.617,0.000,0.000,0.000,-222444
8.566934584,111869853,3.227,-9.172,-0.578,0.000,0.000,0.000,-222193
8.56700575,111874074,3.227,-9.172,-0.578,0.000,0.000,0.000,-222308
8.567076875,111877296,3.191,-9.133,-0.617,0.000,0.000,0.000,-222750
8.567147709,111881517,3.191,-9.133,-0.617,0.000,0.000,0.000,-222980
8.567452,111886738,3.191,-9.133,-0.617,0.000,0.000,0.000,-221918
8.570677875,111889959,3.191,-9.133,-0.617,0.000,0.000,0.000,-223363
8.574999209,111894180,3.191,-9.133,-0.617,0.000,0.000,0.000,-222987
8.600242167,111899400,3.191,-9.133,-0.617,0.000,0.000,0.000,-222432
8.600313709,111903620,3.305,-9.133,-0.617,0.000,0.000,0.000,-221910
8.600385667,111906841,3.305,-9.133,-0.617,0.000,0.000,0.000,-222961
8.600457084,111915062,3.305,-9.133,-0.617,0.000,0.000,0.000,-221973
8.601233,111920283,3.305,-9.133,-0.617,0.000,0.000,0.000,-222658
8.6053445,111924503,3.305,-9.133,-0.617,0.000,0.000,0.000,-222952
8.610478459,111929724,3.305,-9.133,-0.617,0.000,0.000,0.000,-221890
8.633762459,111933945,3.305,-9.133,-0.617,0.000,0.000,0.000,-222282
8.633918959,111938166,3.266,-9.094,-0.656,0.000,0.000,0.000,-222959
8.633991292,111940386,3.266,-9.094,-0.656,0.000,0.000,0.000,-222660
8.634062834,111946606,3.266,-9.094,-0.656,0.000,0.000,0.000,-222728
8.634134584,111949826,3.266,-9.094,-0.656,0.000,0.000,0.000,-222824
8.63490975,111954047,3.266,-9.094,-0.656,0.000,0.000,0.000,-222937
8.639110459,111958268,3.266,-9.094,-0.656,0.000,0.000,0.000,-222704
8.642227209,111961488,3.266,-9.094,-0.656,0.000,0.000,0.000,-222535
8.6669405,111966709,3.227,-9.172,-0.656,0.000,0.000,0.000,-221286
8.667012917,111968930,3.227,-9.172,-0.656,0.000,0.000,0.000,-222263
8.667084667,111973151,3.227,-9.172,-0.656,0.000,0.000,0.000,-222950
8.667157334,111977372,3.227,-9.172,-0.656,0.000,0.000,0.000,-223833
8.667228917,111981593,3.227,-9.172,-0.656,0.000,0.000,0.000,-223093
8.667551917,111986814,3.227,-9.172,-0.656,0.000,0.000,0.000,-222075
8.67184425,111991034,3.305,-9.133,-0.617,0.000,0.000,0.000,-223073
8.674982334,111994258,3.305,-9.133,-0.617,0.000,0.000,0.000,-222439
8.700207875,111999478,3.305,-9.133,-0.617,0.000,0.000,0.000,-222466
8.700289834,112003699,3.305,-9.133,-0.617,0.000,0.000,0.000,-222193
8.700370667,112007919,3.305,-9.133,-0.617,0.000,0.000,0.000,-223165
8.700451334,112012139,3.305,-9.133,-0.617,0.000,0.000,0.000,-223766
8.700527042,112015360,3.266,-9.094,-0.617,0.000,0.000,0.000,-222475
8.700598584,112019580,3.266,-9.094,-0.617,0.000,0.000,0.000,-222059
8.703527584,112022800,3.227,-9.172,-0.578,0.000,0.000,0.000,-222843
8.708711167,112028020,3.227,-9.172,-0.578,0.000,0.000,0.000,-222650
8.733537584,112032241,3.227,-9.172,-0.578,0.000,0.000,0.000,-222342
8.73361125,112036462,3.227,-9.172,-0.578,0.000,0.000,0.000,-222244
8.733682917,112040683,3.227,-9.172,-0.578,0.000,0.000,0.000,-222075
8.733755959,112044903,3.227,-9.172,-0.578,0.000,0.000,0.000,-222743
8.733836125,112050124,3.227,-9.137,-0.617,0.000,0.000,0.000,-222203
8.73391625,112052345,3.227,-9.137,-0.617,0.000,0.000,0.000,-222159
8.738375709,112057566,3.227,-9.137,-0.617,0.000,0.000,0.000,-223319
8.766873667,112061786,3.227,-9.137,-0.617,0.000,0.000,0.000,-222463
8.766944959,112067007,3.227,-9.137,-0.617,0.000,0.000,0.000,-222950
8.767016125,112072227,3.266,-9.133,-0.578,0.000,0.000,0.000,-222074
8.767086667,112075447,3.266,-9.133,-0.578,0.000,0.000,0.000,-222931
8.767157834,112081668,3.266,-9.133,-0.578,0.000,0.000,0.000,-222576
8.767229417,112085888,3.266,-9.133,-0.578,0.000,0.000,0.000,-222455
8.770907042,112090108,3.266,-9.133,-0.578,0.000,0.000,0.000,-223393
8.775026167,112094328,3.266,-9.133,-0.578,0.000,0.000,0.000,-223179
8.800396625,112097549,3.266,-9.133,-0.578,0.000,0.000,0.000,-222501
8.800533042,112101770,3.266,-9.133,-0.539,0.000,0.000,0.000,-222049
8.800604834,112104991,3.266,-9.133,-0.539,0.000,0.000,0.000,-223036
8.800676959,112111211,3.266,-9.133,-0.539,0.000,0.000,0.000,-223281
8.800749167,112115431,3.266,-9.133,-0.539,0.000,0.000,0.000,-222208
8.800821542,112119652,3.266,-9.133,-0.539,0.000,0.000,0.000,-222501
8.805685667,112124872,3.266,-9.133,-0.539,0.000,0.000,0.000,-223485
8.809810125,112129093,3.266,-9.133,-0.539,0.000,0.000,0.000,-222883
8.83356475,112132313,3.227,-9.137,-0.656,0.000,0.000,0.000,-222312
8.83363925,112134534,3.227,-9.137,-0.656,0.000,0.000,0.000,-222662
8.833711209,112139754,3.227,-9.137,-0.656,0.000,0.000,0.000,-223603
8.8337845,112143974,3.227,-9.137,-0.656,0.000,0.000,0.000,-223639
8.833856,112149195,3.227,-9.137,-0.656,0.000,0.000,0.000,-222566
8.834139125,112153415,3.227,-9.137,-0.656,0.000,0.000,0.000,-222277
8.840464459,112159635,3.227,-9.137,-0.656,0.000,0.000,0.000,-223036
8.866872917,112162855,3.266,-9.133,-0.578,0.000,0.000,0.000,-222974
8.8669475,112168076,3.266,-9.133,-0.578,0.000,0.000,0.000,-222870
8.867020959,112172296,3.266,-9.133,-0.578,0.000,0.000,0.000,-222989
8.867093334,112176517,3.266,-9.133,-0.578,0.000,0.000,0.000,-222767
8.867166,112180737,3.266,-9.133,-0.578,0.000,0.000,0.000,-221314
8.867237625,112184957,3.266,-9.133,-0.578,0.000,0.000,0.000,-221790
8.87099,112190177,3.266,-9.176,-0.578,0.000,0.000,0.000,-223319
8.874203959,112193397,3.266,-9.176,-0.578,0.000,0.000,0.000,-222173
8.900206792,112199617,3.266,-9.176,-0.578,0.000,0.000,0.000,-222460
8.900278,112203837,3.266,-9.176,-0.578,0.000,0.000,0.000,-222239
8.90034975,112208057,3.266,-9.176,-0.578,0.000,0.000,0.000,-222717
8.90042175,112212278,3.266,-9.176,-0.578,0.000,0.000,0.000,-222658
8.900494417,112216499,3.266,-9.176,-0.578,0.000,0.000,0.000,-223151
8.902536167,112221719,3.227,-9.172,-0.656,0.000,0.000,0.000,-222229
8.905749875,112224939,3.227,-9.172,-0.656,0.000,0.000,0.000,-222873
8.933533959,112231160,3.227,-9.172,-0.656,0.000,0.000,0.000,-222021
8.933606334,112235381,3.227,-9.172,-0.656,0.000,0.000,0.000,-222443
8.933677875,112239602,3.227,-9.172,-0.656,0.000,0.000,0.000,-222444
8.933758042,112243822,3.227,-9.172,-0.656,0.000,0.000,0.000,-222577
8.933837209,112249042,3.227,-9.172,-0.656,0.000,0.000,0.000,-222356
8.9339845,112253262,3.266,-9.133,-0.578,0.000,0.000,0.000,-222885
8.93729725,112256483,3.266,-9.133,-0.578,0.000,0.000,0.000,-222503
8.966894542,112261704,3.266,-9.133,-0.578,0.000,0.000,0.000,-221909
8.966966209,112266924,3.266,-9.133,-0.578,0.000,0.000,0.000,-222774
8.967038584,112271145,3.266,-9.133,-0.578,0.000,0.000,0.000,-222511
8.967110292,112274365,3.266,-9.133,-0.578,0.000,0.000,0.000,-222318
8.967182459,112278585,3.266,-9.133,-0.656,0.000,0.000,0.000,-222931
8.9672545,112280805,3.266,-9.133,-0.656,0.000,0.000,0.000,-222981
8.967327167,112285026,3.266,-9.133,-0.656,0.000,0.000,0.000,-222313
8.970977167,112290246,3.266,-9.133,-0.656,0.000,0.000,0.000,-223207
8.975169167,112294466,3.266,-9.133,-0.656,0.000,0.000,0.000,-222568
9.000236875,112298686,3.266,-9.133,-0.656,0.000,0.000,0.000,-222543
9.000310125,112301906,3.266,-9.133,-0.656,0.000,0.000,0.000,-222460
9.000382209,112307126,3.227,-9.215,-0.656,0.000,0.000,0.000,-222769
9.00045475,112309346,3.227,-9.215,-0.656,0.000,0.000,0.000,-222607
9.000526334,112313567,3.227,-9.215,-0.656,0.000,0.000,0.000,-222406
9.00059925,112317788,3.227,-9.215,-0.656,0.000,0.000,0.000,-222969
9.002733792,112322009,3.227,-9.215,-0.656,0.000,0.000,0.000,-223190
9.007956042,112327229,3.227,-9.215,-0.656,0.000,0.000,0.000,-222545
9.033599959,112331449,3.227,-9.215,-0.656,0.000,0.000,0.000,-223150
9.033673625,112335669,3.305,-9.176,-0.578,0.000,0.000,0.000,-221835
9.033745125,112338889,3.305,-9.176,-0.578,0.000,0.000,0.000,-222173
9.033818125,112345110,3.305,-9.176,-0.578,0.000,0.000,0.000,-222531
9.033890625,112349330,3.305,-9.176,-0.578,0.000,0.000,0.000,-222335
9.033963042,112352550,3.305,-9.176,-0.578,0.000,0.000,0.000,-222689
9.037472,112356771,3.305,-9.176,-0.578,0.000,0.000,0.000,-223456
9.066868792,112361992,3.305,-9.176,-0.578,0.000,0.000,0.000,-222930
9.06694125,112367213,3.266,-9.133,-0.617,0.000,0.000,0.000,-222410
9.067013417,112370433,3.266,-9.133,-0.617,0.000,0.000,0.000,-223050
9.067084959,112376653,3.266,-9.133,-0.617,0.000,0.000,0.000,-223138
9.067157292,112380874,3.266,-9.133,-0.617,0.000,0.000,0.000,-222764
9.067228792,112384095,3.266,-9.133,-0.617,0.000,0.000,0.000,-221913
9.070054792,112389315,3.266,-9.133,-0.617,0.000,0.000,0.000,-222553
9.074265834,112393535,3.266,-9.133,-0.617,0.000,0.000,0.000,-222992
9.100177459,112397755,3.266,-9.094,-0.578,0.000,0.000,0.000,-221840
9.100249625,112399975,3.266,-9.094,-0.578,0.000,0.000,0.000,-221634
9.100321625,112404195,3.266,-9.094,-0.578,0.000,0.000,0.000,-222222
9.100393375,112410416,3.266,-9.094,-0.578,0.000,0.000,0.000,-222928
9.100466667,112414637,3.266,-9.094,-0.578,0.000,0.000,0.000,-222975
9.10053925,112418858,3.266,-9.094,-0.578,0.000,0.000,0.000,-222828
9.103817542,112423078,3.266,-9.094,-0.578,0.000,0.000,0.000,-222536
9.109029917,112428299,3.227,-9.172,-0.539,0.000,0.000,0.000,-222354
9.133537875,112431519,3.227,-9.172,-0.539,0.000,0.000,0.000,-222024
9.13361,112437739,3.227,-9.172,-0.539,0.000,0.000,0.000,-222114
9.133683334,112441960,3.227,-9.172,-0.539,0.000,0.000,0.000,-223002
9.133755167,112447181,3.227,-9.172,-0.539,0.000,0.000,0.000,-222571
9.133833042,112451401,3.227,-9.172,-0.539,0.000,0.000,0.000,-222955
9.136348584,112455622,3.227,-9.172,-0.539,0.000,0.000,0.000,-223338
9.1406695,112459843,3.227,-9.137,-0.578,0.000,0.000,0.000,-222307
9.16686525,112463048,3.227,-9.137,-0.578,0.000,0.000,0.000,-222307
9.16693775,112469268,3.227,-9.137,-0.578,0.000,0.000,0.000,-221833
9.167009709,112473489,3.227,-9.137,-0.578,0.000,0.000,0.000,-222738
9.167082125,112477709,3.227,-9.137,-0.578,0.000,0.000,0.000,-223640
9.167154042,112482930,3.227,-9.137,-0.578,0.000,0.000,0.000,-222750
9.168962625,112488151,3.227,-9.137,-0.578,0.000,0.000,0.000,-222863
9.173209542,112492371,3.266,-9.176,-0.617,0.000,0.000,0.000,-223250
9.175305125,112494592,3.266,-9.176,-0.617,0.000,0.000,0.000,-223525
9.200225459,112499812,3.266,-9.176,-0.617,0.000,0.000,0.000,-222160
9.200297459,112504032,3.266,-9.176,-0.617,0.000,0.000,0.000,-222865
9.200369084,112509252,3.266,-9.176,-0.617,0.000,0.000,0.000,-222883
9.200441334,112513472,3.266,-9.176,-0.617,0.000,0.000,0.000,-221765
9.200512917,112518692,3.266,-9.176,-0.617,0.000,0.000,0.000,-222002
9.203635584,112522913,3.227,-9.172,-0.617,0.000,0.000,0.000,-222867
9.206958584,112526133,3.227,-9.172,-0.617,0.000,0.000,0.000,-222970
9.233540875,112532354,3.227,-9.172,-0.617,0.000,0.000,0.000,-222576
9.233613542,112537574,3.227,-9.172,-0.617,0.000,0.000,0.000,-222313
9.233686292,112542794,3.227,-9.172,-0.617,0.000,0.000,0.000,-223208
9.23376475,112548014,3.266,-9.176,-0.578,0.000,0.000,0.000,-222466
9.233845459,112551234,3.266,-9.176,-0.578,0.000,0.000,0.000,-221803
9.237175209,112556455,3.266,-9.176,-0.578,0.000,0.000,0.000,-223176
9.240478542,112559675,3.266,-9.176,-0.578,0.000,0.000,0.000,-222708
9.266887542,112563896,3.266,-9.176,-0.578,0.000,0.000,0.000,-222433
9.266968834,112569117,3.266,-9.176,-0.578,0.000,0.000,0.000,-223527
9.267046417,112573338,3.266,-9.176,-0.578,0.000,0.000,0.000,-222657
9.267118542,112577558,3.227,-9.172,-0.578,0.000,0.000,0.000,-223271
9.267189125,112580779,3.227,-9.172,-0.578,0.000,0.000,0.000,-222359
9.267745584,112587000,3.227,-9.172,-0.578,0.000,0.000,0.000,-221957
9.272041875,112591221,3.227,-9.172,-0.578,0.000,0.000,0.000,-223105
9.300197917,112595442,3.227,-9.172,-0.578,0.000,0.000,0.000,-223673
9.300269042,112599662,3.227,-9.172,-0.578,0.000,0.000,0.000,-222351
9.30034125,112603882,3.227,-9.172,-0.578,0.000,0.000,0.000,-222660
9.300413709,112608103,3.266,-9.133,-0.617,0.000,0.000,0.000,-222767
9.300485709,112610323,3.266,-9.133,-0.617,0.000,0.000,0.000,-222115
9.300557542,112614543,3.266,-9.133,-0.617,0.000,0.000,0.000,-223102
9.300631209,112618764,3.266,-9.133,-0.617,0.000,0.000,0.000,-222062
9.303710667,112622985,3.266,-9.133,-0.617,0.000,0.000,0.000,-222074
9.308910292,112628206,3.266,-9.133,-0.617,0.000,0.000,0.000,-222672
9.333536084,112632426,3.266,-9.133,-0.617,0.000,0.000,0.000,-222241
9.3336095,112636646,3.227,-9.172,-0.578,0.000,0.000,0.000,-222681
9.333681167,112639866,3.227,-9.172,-0.578,0.000,0.000,0.000,-221953
9.333753334,112645086,3.227,-9.172,-0.578,0.000,0.000,0.000,-223064
9.33382925,112650307,3.227,-9.172,-0.578,0.000,0.000,0.000,-222422
9.335341834,112654528,3.227,-9.172,-0.578,0.000,0.000,0.000,-223114
9.341615917,112660749,3.227,-9.172,-0.578,0.000,0.000,0.000,-222451
9.36697725,112664955,3.227,-9.172,-0.578,0.000,0.000,0.000,-222451
9.367048625,112669175,3.266,-9.133,-0.617,0.000,0.000,0.000,-222913
9.367121417,112671396,3.266,-9.133,-0.617,0.000,0.000,0.000,-222364
9.367193,112677616,3.266,-9.133,-0.617,0.000,0.000,0.000,-222548
9.367264625,112681836,3.266,-9.133,-0.617,0.000,0.000,0.000,-222370
9.367335375,112686057,3.266,-9.133,-0.617,0.000,0.000,0.000,-221938
9.371124625,112690277,3.266,-9.133,-0.617,0.000,0.000,0.000,-222583
9.400432625,112695498,3.266,-9.133,-0.617,0.000,0.000,0.000,-223485
9.400505834,112699718,3.227,-9.137,-0.578,0.000,0.000,0.000,-222676
9.400578042,112702939,3.227,-9.137,-0.578,0.000,0.000,0.000,-222264
9.400650917,112709159,3.227,-9.137,-0.578,0.000,0.000,0.000,-222717
9.400723292,112713380,3.227,-9.137,-0.578,0.000,0.000,0.000,-222500
9.400796084,112717600,3.227,-9.137,-0.578,0.000,0.000,0.000,-222224
9.403678417,112722820,3.227,-9.137,-0.578,0.000,0.000,0.000,-222514
9.408779917,112728041,3.227,-9.137,-0.578,0.000,0.000,0.000,-222785
9.433776709,112732261,3.227,-9.137,-0.578,0.000,0.000,0.000,-222591
9.43385075,112734481,3.227,-9.137,-0.578,0.000,0.000,0.000,-222840
9.4339225,112738701,3.227,-9.137,-0.578,0.000,0.000,0.000,-222379
9.433995334,112742922,3.227,-9.137,-0.578,0.000,0.000,0.000,-223142
9.43407225,112748142,3.227,-9.137,-0.578,0.000,0.000,0.000,-222532
9.4341445,112752362,3.227,-9.137,-0.578,0.000,0.000,0.000,-221983
9.4374095,112756582,3.227,-9.137,-0.578,0.000,0.000,0.000,-222996
9.441643959,112760803,3.227,-9.172,-0.578,0.000,0.000,0.000,-223000
9.466867375,112764024,3.227,-9.172,-0.578,0.000,0.000,0.000,-222448
9.466939125,112770246,3.227,-9.172,-0.578,0.000,0.000,0.000,-222762
9.467009667,112774466,3.227,-9.172,-0.578,0.000,0.000,0.000,-223391
9.4670815,112777686,3.227,-9.172,-0.578,0.000,0.000,0.000,-223285
9.467153209,112782906,3.227,-9.172,-0.578,0.000,0.000,0.000,-221816
9.468947042,112788126,3.266,-9.133,-0.539,0.000,0.000,0.000,-223554
9.472167709,112791346,3.266,-9.133,-0.539,0.000,0.000,0.000,-222730
9.500202,112796567,3.266,-9.133,-0.539,0.000,0.000,0.000,-222289
9.500273584,112800787,3.266,-9.133,-0.539,0.000,0.000,0.000,-223248
9.500345959,112805992,3.266,-9.133,-0.539,0.000,0.000,0.000,-223248
9.500417625,112810212,3.266,-9.133,-0.539,0.000,0.000,0.000,-223267
9.5004965,112815433,3.266,-9.133,-0.539,0.000,0.000,0.000,-222328
9.500574167,112819653,3.305,-9.176,-0.539,0.000,0.000,0.000,-222359
9.503693625,112822873,3.305,-9.176,-0.539,0.000,0.000,0.000,-222675
9.533541167,112829094,3.305,-9.176,-0.539,0.000,0.000,0.000,-221952
9.533614167,112833315,3.305,-9.176,-0.539,0.000,0.000,0.000,-220739
9.5336895,112837536,3.305,-9.176,-0.539,0.000,0.000,0.000,-222319
9.533761959,112841756,3.305,-9.176,-0.539,0.000,0.000,0.000,-222845
9.533833334,112846977,3.305,-9.176,-0.539,0.000,0.000,0.000,-223025
9.533905542,112851198,3.266,-9.176,-0.617,0.000,0.000,0.000,-222150
9.535218667,112854419,3.266,-9.176,-0.617,0.000,0.000,0.000,-222525
9.566865542,112860639,3.266,-9.176,-0.617,0.000,0.000,0.000,-222557
9.566952459,112864859,3.266,-9.176,-0.617,0.000,0.000,0.000,-222595
9.567025042,112869082,3.266,-9.176,-0.617,0.000,0.000,0.000,-222062
9.567098125,112873302,3.266,-9.176,-0.617,0.000,0.000,0.000,-222818
9.567171625,112878522,3.266,-9.176,-0.617,0.000,0.000,0.000,-223197
9.567243875,112882743,3.227,-9.172,-0.578,0.000,0.000,0.000,-222500
9.567316709,112885963,3.227,-9.172,-0.578,0.000,0.000,0.000,-222621
9.5729345,112892183,3.227,-9.172,-0.578,0.000,0.000,0.000,-223444
9.60049425,112896404,3.227,-9.172,-0.578,0.000,0.000,0.000,-222745
9.600615667,112899624,3.227,-9.172,-0.578,0.000,0.000,0.000,-222493
9.600769334,112903845,3.227,-9.172,-0.578,0.000,0.000,0.000,-222163
9.600841042,112910066,3.227,-9.172,-0.578,0.000,0.000,0.000,-224057
9.600912792,112914287,3.266,-9.133,-0.539,0.000,0.000,0.000,-222817
9.6009845,112917507,3.266,-9.133,-0.539,0.000,0.000,0.000,-222340
9.603534,112922727,3.266,-9.133,-0.539,0.000,0.000,0.000,-222561
9.608754125,112927947,3.266,-9.133,-0.539,0.000,0.000,0.000,-222620
9.63351925,112932168,3.266,-9.133,-0.539,0.000,0.000,0.000,-222622
9.633594709,112936388,3.266,-9.133,-0.539,0.000,0.000,0.000,-222271
9.63382875,112940608,3.266,-9.133,-0.539,0.000,0.000,0.000,-223308
9.633961875,112944829,3.266,-9.094,-0.617,0.000,0.000,0.000,-223551
9.634034375,112948034,3.266,-9.094,-0.617,0.000,0.000,0.000,-223551
9.63410575,112953254,3.266,-9.094,-0.617,0.000,0.000,0.000,-222358
9.638357209,112957474,3.266,-9.094,-0.617,0.000,0.000,0.000,-222592
9.642487459,112961695,3.266,-9.094,-0.617,0.000,0.000,0.000,-222450
9.66688875,112965916,3.266,-9.094,-0.617,0.000,0.000,0.000,-222621
9.666959459,112971137,3.266,-9.094,-0.617,0.000,0.000,0.000,-222271
9.667031792,112975357,3.266,-9.133,-0.617,0.000,0.000,0.000,-222266
9.667103125,112978578,3.266,-9.133,-0.617,0.000,0.000,0.000,-221780
9.667175209,112984798,3.266,-9.133,-0.617,0.000,0.000,0.000,-222541
9.670848292,112990018,3.266,-9.133,-0.617,0.000,0.000,0.000,-223210
9.675005417,112994238,3.266,-9.133,-0.617,0.000,0.000,0.000,-222924
9.700245875,112998458,3.266,-9.133,-0.617,0.000,0.000,0.000,-222353
9.70031775,113002679,3.266,-9.133,-0.617,0.000,0.000,0.000,-223044
9.700392167,113007899,3.266,-9.094,-0.617,0.000,0.000,0.000,-222879
9.7004725,113010120,3.266,-9.094,-0.617,0.000,0.000,0.000,-222686
9.70055225,113015343,3.266,-9.094,-0.617,0.000,0.000,0.000,-222581
9.701384167,113020563,3.266,-9.094,-0.617,0.000,0.000,0.000,-222259
9.70661325,113025783,3.266,-9.094,-0.617,0.000,0.000,0.000,-222637
9.733547375,113031004,3.266,-9.094,-0.617,0.000,0.000,0.000,-222834
9.733621667,113036224,3.266,-9.094,-0.617,0.000,0.000,0.000,-222335
9.733693167,113040445,3.266,-9.094,-0.617,0.000,0.000,0.000,-222961
9.733765584,113042665,3.266,-9.094,-0.617,0.000,0.000,0.000,-222418
9.733837709,113048885,3.266,-9.094,-0.617,0.000,0.000,0.000,-221981
9.733916292,113053105,3.266,-9.094,-0.617,0.000,0.000,0.000,-223277
9.738147459,113057326,3.266,-9.094,-0.617,0.000,0.000,0.000,-221907
9.766931417,113061546,3.266,-9.094,-0.617,0.000,0.000,0.000,-222664
9.767003667,113066766,3.266,-9.094,-0.617,0.000,0.000,0.000,-222203
9.767075542,113070986,3.227,-9.137,-0.578,0.000,0.000,0.000,-222627
9.767147625,113073206,3.227,-9.137,-0.578,0.000,0.000,0.000,-222173
9.767219125,113078427,3.227,-9.137,-0.578,0.000,0.000,0.000,-222945
9.767291625,113082647,3.227,-9.137,-0.578,0.000,0.000,0.000,-222721
9.76760125,113086867,3.227,-9.137,-0.578,0.000,0.000,0.000,-222925
9.771919625,113091088,3.227,-9.137,-0.578,0.000,0.000,0.000,-222773
9.776040834,113095308,3.227,-9.137,-0.578,0.000,0.000,0.000,-222830
9.800295667,113100528,3.266,-9.176,-0.617,0.000,0.000,0.000,-222916
9.800585125,113102748,3.266,-9.176,-0.617,0.000,0.000,0.000,-221947
9.800754167,113107969,3.266,-9.176,-0.617,0.000,0.000,0.000,-222841
9.800825875,113113190,3.266,-9.176,-0.617,0.000,0.000,0.000,-222543
9.80089925,113118410,3.266,-9.176,-0.578,0.000,0.000,0.000,-222234
9.802465792,113121630,3.266,-9.176,-0.578,0.000,0.000,0.000,-222656
9.808682042,113127850,3.266,-9.176,-0.578,0.000,0.000,0.000,-223360
9.833706834,113132072,3.266,-9.176,-0.578,0.000,0.000,0.000,-222837
9.833867584,113136292,3.266,-9.176,-0.578,0.000,0.000,0.000,-222201
9.833940959,113140513,3.266,-9.176,-0.578,0.000,0.000,0.000,-223306
9.834013125,113145733,3.266,-9.133,-0.578,0.000,0.000,0.000,-223419
9.834085042,113148954,3.266,-9.133,-0.578,0.000,0.000,0.000,-221694
9.835022917,113154175,3.266,-9.133,-0.578,0.000,0.000,0.000,-221798
9.841242042,113160395,3.266,-9.133,-0.578,0.000,0.000,0.000,-223360
