pc_time_s,teensy_time_us,ax,ay,az,gx,gy,gz,load_raw
2.0039961338043213,519618317,3.344,-9.094,-0.730,0.006,0.002,-0.002,-221973
2.0041251182556152,519623538,3.344,-9.094,-0.730,0.000,0.000,-0.006,-222215
2.004225015640259,519627759,3.344,-9.094,-0.730,0.002,-0.004,-0.008,-222003
2.004305124282837,519631980,3.383,-9.137,-0.656,0.002,-0.004,-0.008,-222438
2.0043869018554688,519634201,3.383,-9.137,-0.656,0.002,0.000,-0.002,-222009
2.004462957382202,519639422,3.383,-9.137,-0.656,0.000,-0.006,-0.006,-222873
2.004546880722046,519644643,3.383,-9.137,-0.656,-0.006,0.000,-0.002,-221926
2.0046210289001465,519649864,3.383,-9.137,-0.656,-0.008,0.002,0.008,-222363
2.0047059059143066,519654085,3.383,-9.137,-0.656,0.006,-0.010,-0.008,-221926
2.004779815673828,519658308,3.383,-9.137,-0.656,0.002,0.006,0.010,-221453
2.0048768520355225,519663529,3.344,-9.094,-0.730,0.002,0.006,0.010,-221875
2.004962921142578,519666750,3.344,-9.094,-0.730,-0.004,0.004,-0.006,-222828
2.0050389766693115,519671971,3.344,-9.094,-0.730,-0.002,0.002,-0.006,-222362
2.005121946334839,519677192,3.344,-9.094,-0.730,0.000,0.000,-0.006,-222845
2.0051980018615723,519682413,3.344,-9.094,-0.730,-0.008,-0.002,0.010,-221737
2.0052850246429443,519686634,3.344,-9.094,-0.730,-0.008,-0.006,-0.002,-222739
2.005357027053833,519691855,3.344,-9.094,-0.730,0.008,0.002,0.006,-222119
2.0054309368133545,519695076,3.344,-9.133,-0.691,0.008,0.002,0.006,-221578
2.005510091781616,519697297,3.344,-9.133,-0.691,0.012,0.002,0.002,-222164
2.0055861473083496,519702518,3.344,-9.133,-0.691,-0.004,-0.002,0.008,-223064
2.0056679248809814,519706739,3.344,-9.133,-0.691,0.006,0.008,-0.002,-221738
2.005742073059082,519710960,3.344,-9.133,-0.691,0.004,-0.010,0.000,-222172
2.0058248043060303,519715181,3.344,-9.133,-0.691,-0.008,-0.004,0.012,-221077
2.0058977603912354,519719402,3.344,-9.133,-0.691,0.002,0.002,0.000,-222226
2.0059711933135986,519723622,3.344,-9.133,-0.730,0.002,0.002,0.000,-222390
2.0060529708862305,519726843,3.344,-9.133,-0.730,-0.004,0.000,0.006,-221763
2.0061349868774414,519733064,3.344,-9.133,-0.730,0.004,0.002,0.002,-221672
2.0062429904937744,519737285,3.344,-9.133,-0.730,0.008,0.002,0.000,-222219
2.006314992904663,519742506,3.344,-9.133,-0.730,0.002,-0.004,0.004,-222641
2.0064008235931396,519746727,3.344,-9.133,-0.730,0.004,0.010,-0.002,-222216
2.006502151489258,519750948,3.344,-9.133,-0.730,0.004,0.006,0.006,-222284
2.006587028503418,519754169,3.305,-9.137,-0.730,0.004,0.006,0.006,-222817
2.0066699981689453,519756390,3.305,-9.137,-0.730,0.004,0.006,-0.002,-222485
2.0067460536956787,519761611,3.305,-9.137,-0.730,-0.004,0.002,-0.002,-221458
2.0068697929382324,519766832,3.305,-9.137,-0.730,-0.004,-0.004,-0.002,-221173
2.0069470405578613,519771053,3.305,-9.137,-0.730,0.010,-0.008,-0.002,-221818
2.007025957107544,519775274,3.305,-9.137,-0.730,-0.008,-0.002,0.004,-222796
2.007111072540283,519780495,3.305,-9.137,-0.730,-0.004,-0.006,-0.008,-221163
2.0071887969970703,519785716,3.383,-9.094,-0.691,-0.004,-0.006,-0.008,-221872
2.0072739124298096,519788937,3.383,-9.094,-0.691,-0.006,-0.004,0.023,-222269
2.0073487758636475,519794158,3.383,-9.094,-0.691,0.004,0.000,-0.004,-221515
2.007430076599121,519798379,3.383,-9.094,-0.691,0.002,0.006,0.020,-221616
2.0075061321258545,519802600,3.383,-9.094,-0.691,-0.002,-0.016,-0.012,-221990
2.007593870162964,519807821,3.383,-9.094,-0.691,-0.004,-0.002,0.008,-223190
2.0076680183410645,519812042,3.383,-9.094,-0.691,0.000,-0.004,0.002,-221862
2.0077409744262695,519815263,3.305,-9.055,-0.691,0.000,-0.004,0.002,-222110
2.007830858230591,519817484,3.305,-9.055,-0.691,-0.002,0.000,0.004,-222167
2.007917881011963,519822705,3.305,-9.055,-0.691,-0.002,0.006,-0.016,-221961
2.008002996444702,519826926,3.305,-9.055,-0.691,0.002,-0.004,0.012,-222100
2.008092164993286,519832147,3.305,-9.055,-0.691,0.006,0.002,0.008,-222135
2.0081748962402344,519836369,3.305,-9.055,-0.691,-0.006,-0.002,0.014,-221978
2.0082530975341797,519842589,3.305,-9.055,-0.691,-0.002,0.000,0.004,-222552
2.0083260536193848,519846810,3.344,-9.133,-0.730,-0.002,0.000,0.004,-222203
2.008405923843384,519849031,3.344,-9.133,-0.730,-0.006,0.002,0.006,-222254
2.00848388671875,519853252,3.344,-9.133,-0.730,0.004,0.002,-0.004,-221576
2.0085642337799072,519857473,3.344,-9.133,-0.730,-0.008,-0.002,0.008,-221060
2.0086371898651123,519862694,3.344,-9.133,-0.730,0.004,-0.004,0.004,-221894
2.0088109970092773,519866915,3.344,-9.133,-0.730,0.000,0.012,-0.008,-221737
2.0090060234069824,519871136,3.344,-9.133,-0.730,-0.006,0.002,-0.002,-222333
2.009193181991577,519874358,3.305,-9.098,-0.730,-0.006,0.002,-0.002,-222060
2.009382963180542,519876579,3.305,-9.098,-0.730,0.008,0.000,-0.004,-223043
2.0095670223236084,519880800,3.305,-9.098,-0.730,0.006,-0.006,0.000,-222722
2.0097708702087402,519885021,3.305,-9.098,-0.730,0.000,0.002,0.020,-221528
2.0099539756774902,519889242,3.305,-9.098,-0.730,0.002,-0.006,0.008,-222702
2.010143995285034,519894463,3.305,-9.098,-0.730,-0.004,0.002,0.012,-221924
2.0103259086608887,519898684,3.305,-9.098,-0.730,0.008,0.000,-0.006,-221171
2.0104968547821045,519902905,3.305,-9.137,-0.730,0.008,0.000,-0.006,-222428
2.0106639862060547,519905126,3.305,-9.137,-0.730,-0.008,0.000,0.004,-222339
2.0108211040496826,519910347,3.305,-9.137,-0.730,0.004,-0.002,0.000,-222042
2.0109879970550537,519914568,3.305,-9.137,-0.730,0.008,-0.010,-0.008,-222189
2.0111498832702637,519917789,3.305,-9.137,-0.730,-0.010,0.008,0.004,-221747
2.0114710330963135,519924010,3.305,-9.137,-0.730,0.006,-0.002,-0.008,-222203
2.0117721557617188,519928231,3.305,-9.137,-0.730,0.000,-0.004,-0.006,-222633
2.011967897415161,519932452,3.344,-9.098,-0.656,0.000,-0.004,-0.006,-222416
2.0121400356292725,519934673,3.344,-9.098,-0.656,0.002,0.008,0.004,-221708
2.0123019218444824,519938894,3.344,-9.098,-0.656,-0.008,-0.012,-0.006,-222480
2.01249098777771,519943115,3.344,-9.098,-0.656,-0.006,-0.006,0.010,-222165
2.012650966644287,519947336,3.344,-9.098,-0.656,-0.002,0.002,-0.004,-222451
2.012812852859497,519952557,3.344,-9.098,-0.656,0.014,0.002,-0.012,-222787
2.012971878051758,519956778,3.344,-9.098,-0.656,-0.006,0.000,-0.002,-223003
2.013140916824341,519961999,3.305,-9.137,-0.730,-0.006,0.000,-0.002,-221464
2.0132970809936523,519964220,3.305,-9.137,-0.730,0.008,0.002,-0.002,-222062
2.0134639739990234,519969441,3.305,-9.137,-0.730,-0.004,-0.006,0.000,-222435
2.0136301517486572,519973662,3.305,-9.137,-0.730,0.006,0.002,0.006,-222750
2.0137901306152344,519976883,3.305,-9.137,-0.730,-0.008,0.008,-0.006,-221326
2.013960123062134,519982104,3.305,-9.137,-0.730,-0.004,0.002,0.008,-221336
2.014137029647827,519987325,3.344,-9.094,-0.691,-0.004,0.002,0.008,-221803
2.014303207397461,519990546,3.344,-9.094,-0.691,-0.002,0.000,-0.008,-221611
2.0144600868225098,519996767,3.344,-9.094,-0.691,0.000,-0.002,0.006,-221590
2.0146238803863525,520001988,3.344,-9.094,-0.691,-0.006,0.006,0.000,-221713
2.014784812927246,520007209,3.344,-9.094,-0.691,-0.006,0.006,0.006,-221981
2.0149500370025635,520011430,3.344,-9.094,-0.691,0.006,-0.004,-0.010,-222197
2.0151138305664062,520015651,3.344,-9.094,-0.691,-0.004,0.004,-0.002,-222673
2.015273094177246,520019872,3.344,-9.176,-0.691,-0.004,0.004,-0.002,-221798
2.015434980392456,520023093,3.344,-9.176,-0.691,0.004,0.004,-0.008,-222450
2.0155911445617676,520028314,3.344,-9.176,-0.691,0.018,-0.002,0.012,-221714
2.0157511234283447,520034535,3.344,-9.176,-0.691,0.002,0.008,-0.002,-222121
2.0159149169921875,520038756,3.344,-9.176,-0.691,-0.002,-0.002,0.004,-221888
2.0160820484161377,520043977,3.344,-9.176,-0.691,0.006,0.014,0.006,-221342
2.0162599086761475,520048198,3.344,-9.176,-0.691,-0.010,-0.002,0.008,-222192
2.0164198875427246,520052419,3.305,-9.137,-0.730,-0.010,-0.002,0.008,-222374
2.0165889263153076,520054640,3.305,-9.137,-0.730,-0.006,0.012,-0.002,-222085
2.0167551040649414,520058861,3.305,-9.137,-0.730,0.000,0.000,-0.002,-221886
2.0169169902801514,520063082,3.305,-9.137,-0.730,0.012,0.002,0.004,-222516
2.0170769691467285,520067303,3.305,-9.137,-0.730,-0.008,0.002,-0.014,-221816
2.0172410011291504,520072524,3.305,-9.137,-0.730,0.002,-0.004,0.000,-221929
2.017493963241577,520077745,3.305,-9.137,-0.730,0.004,-0.006,0.004,-222191
2.0177009105682373,520082966,3.344,-9.137,-0.770,0.004,-0.006,0.004,-222759
2.0178639888763428,520086187,3.344,-9.137,-0.770,-0.002,0.000,0.012,-222081
2.018002986907959,520091408,3.344,-9.137,-0.770,0.016,0.000,-0.006,-222196
2.0181479454040527,520095629,3.344,-9.137,-0.770,0.000,-0.002,0.004,-221434
2.0182859897613525,520100850,3.344,-9.137,-0.770,0.002,0.000,-0.004,-221763
2.01842999458313,520105071,3.344,-9.137,-0.770,0.002,0.004,-0.002,-222670
2.0185770988464355,520109292,3.344,-9.137,-0.770,-0.004,-0.004,0.004,-222382
2.0187361240386963,520112513,3.344,-9.098,-0.656,-0.004,-0.004,0.004,-222444
2.018872022628784,520115734,3.344,-9.098,-0.656,0.006,0.000,0.006,-221269
2.0190141201019287,520121955,3.344,-9.098,-0.656,0.000,-0.002,0.008,-222458
2.0191609859466553,520126176,3.344,-9.098,-0.656,0.002,-0.002,0.000,-222325
2.0193049907684326,520130397,3.344,-9.098,-0.656,0.004,-0.006,-0.014,-221411
2.0194458961486816,520134618,3.344,-9.098,-0.656,0.006,0.002,0.002,-221933
2.0195889472961426,520137839,3.344,-9.098,-0.656,0.010,-0.004,-0.008,-222667
2.019742012023926,520142060,3.383,-9.094,-0.691,0.010,-0.004,-0.008,-222783
2.019890069961548,520145281,3.383,-9.094,-0.691,0.004,0.000,0.004,-221762
2.0200328826904297,520149502,3.383,-9.094,-0.691,-0.010,-0.002,-0.004,-221883
2.020179033279419,520153723,3.383,-9.094,-0.691,0.006,0.002,-0.002,-221790
2.020319938659668,520157944,3.383,-9.094,-0.691,0.004,-0.004,-0.014,-222167
2.0204708576202393,520163165,3.383,-9.094,-0.691,-0.004,-0.008,-0.008,-222196
2.0206141471862793,520167386,3.383,-9.094,-0.691,0.000,-0.004,-0.008,-221885
2.0207619667053223,520170607,3.344,-9.094,-0.691,0.000,-0.004,-0.008,-222330
2.0208969116210938,520172828,3.344,-9.094,-0.691,0.008,0.000,0.000,-222540
2.02104115486145,520177049,3.344,-9.094,-0.691,0.008,-0.004,0.008,-221978
2.0211801528930664,520182270,3.344,-9.094,-0.691,-0.004,0.008,0.000,-221719
2.0213170051574707,520186491,3.344,-9.094,-0.691,0.002,0.002,0.006,-222321
2.0214600563049316,520191712,3.344,-9.094,-0.691,0.004,0.000,0.000,-222512
2.021601915359497,520195933,3.344,-9.094,-0.691,-0.002,0.000,-0.004,-222092
2.021754026412964,520200154,3.344,-9.133,-0.691,-0.002,0.000,-0.004,-221818
2.0218939781188965,520203375,3.344,-9.133,-0.691,-0.006,0.002,0.004,-222640
2.022049903869629,520210596,3.344,-9.133,-0.691,-0.010,0.008,0.006,-221875
2.022199869155884,520214817,3.344,-9.133,-0.691,0.004,0.004,-0.006,-222814
2.0223379135131836,520219038,3.344,-9.133,-0.691,-0.008,0.002,0.012,-222673
2.0224878787994385,520224259,3.344,-9.133,-0.691,0.006,0.002,-0.002,-222529
2.0226359367370605,520228480,3.344,-9.133,-0.691,0.008,0.006,0.000,-222070
2.02278208732605,520231701,3.305,-9.059,-0.770,0.008,0.006,0.000,-220976
2.023066997528076,520233921,3.305,-9.059,-0.770,0.004,0.008,0.004,-221901
2.0232810974121094,520238142,3.305,-9.059,-0.770,0.000,-0.006,-0.004,-222295
2.023419141769409,520243363,3.305,-9.059,-0.770,-0.006,0.012,0.012,-222323
2.0235610008239746,520247584,3.305,-9.059,-0.770,-0.004,0.000,-0.004,-222344
2.023710012435913,520252805,3.305,-9.059,-0.770,0.002,0.002,-0.010,-222861
2.023848056793213,520258026,3.383,-9.137,-0.656,0.002,0.002,-0.010,-222663
2.0239851474761963,520261247,3.383,-9.137,-0.656,0.006,-0.006,-0.006,-221266
2.0241129398345947,520266468,3.383,-9.137,-0.656,0.002,-0.004,-0.002,-221508
2.0242409706115723,520270689,3.383,-9.137,-0.656,0.004,0.018,0.004,-222658
2.024364948272705,520274910,3.383,-9.137,-0.656,0.002,0.002,0.000,-222850
2.0244879722595215,520280131,3.305,-9.137,-0.730,0.002,0.002,0.000,-221511
2.0246188640594482,520283353,3.305,-9.137,-0.730,0.012,0.004,0.000,-221634
2.0247509479522705,520289573,3.305,-9.137,-0.730,-0.008,-0.002,-0.014,-222240
2.024937152862549,520297794,3.305,-9.137,-0.730,-0.006,0.002,-0.012,-221868
2.0250651836395264,520303015,3.305,-9.137,-0.730,0.000,0.000,0.000,-221683
2.0251970291137695,520307236,3.305,-9.137,-0.730,0.000,0.000,0.000,-221443
2.0253219604492188,520311457,3.305,-9.137,-0.730,0.000,0.000,0.000,-221126
2.0254509449005127,520315678,3.383,-9.098,-0.656,0.000,0.000,0.000,-222105
2.0255751609802246,520317898,3.383,-9.098,-0.656,0.000,0.000,0.000,-221587
2.025702953338623,520323118,3.383,-9.098,-0.656,0.000,0.000,0.000,-222588
2.025895118713379,520327339,3.383,-9.098,-0.656,0.000,0.000,0.000,-222275
2.026026964187622,520330560,3.383,-9.098,-0.656,0.000,0.000,0.000,-221791
2.026252031326294,520334780,3.383,-9.098,-0.656,0.000,0.000,0.000,-221532
2.0263798236846924,520339001,3.383,-9.098,-0.656,0.000,0.000,0.000,-222099
2.0265090465545654,520343222,3.344,-9.094,-0.730,0.000,0.000,0.000,-221373
2.0266311168670654,520345442,3.344,-9.094,-0.730,0.000,0.000,0.000,-222287
2.0267539024353027,520350663,3.344,-9.094,-0.730,0.000,0.000,0.000,-222252
2.0268850326538086,520354884,3.344,-9.094,-0.730,0.000,0.000,0.000,-221650
2.033345937728882,520358107,3.344,-9.094,-0.730,0.000,0.000,0.000,-222488
2.033470869064331,520363328,3.344,-9.094,-0.730,0.000,0.000,0.000,-221346
2.0336081981658936,520367549,3.344,-9.094,-0.730,0.000,0.000,0.000,-222459
2.033726930618286,520370770,3.344,-9.137,-0.770,0.000,0.000,0.000,-222543
2.0338380336761475,520375990,3.344,-9.137,-0.770,0.000,0.000,0.000,-222233
2.033946990966797,520380211,3.344,-9.137,-0.770,0.000,0.000,0.000,-221911
2.0340700149536133,520385432,3.344,-9.137,-0.770,0.000,0.000,0.000,-222159
2.034179925918579,520389653,3.344,-9.137,-0.770,0.000,0.000,0.000,-222117
2.034294843673706,520393874,3.344,-9.137,-0.770,0.000,0.000,0.000,-222523
2.034404993057251,520398095,3.344,-9.137,-0.617,0.000,0.000,0.000,-222208
2.0345168113708496,520401315,3.344,-9.137,-0.617,0.000,0.000,0.000,-221895
2.0348689556121826,520406536,3.344,-9.137,-0.617,0.000,0.000,0.000,-222243
2.0349910259246826,520410757,3.344,-9.137,-0.617,0.000,0.000,0.000,-221830
2.0351059436798096,520414978,3.344,-9.137,-0.617,0.000,0.000,0.000,-222249
2.0352208614349365,520420199,3.344,-9.137,-0.617,0.000,0.000,0.000,-221751
2.035339832305908,520425420,3.344,-9.059,-0.691,0.000,0.000,0.000,-222291
2.035449981689453,520428641,3.344,-9.059,-0.691,0.000,0.000,0.000,-221707
2.0355618000030518,520433861,3.344,-9.059,-0.691,0.000,0.000,0.000,-222167
2.035679817199707,520438082,3.344,-9.059,-0.691,0.000,0.000,0.000,-222430
2.0357909202575684,520442302,3.344,-9.059,-0.691,0.000,0.000,0.000,-221792
2.0359089374542236,520446523,3.344,-9.059,-0.691,0.000,0.000,0.000,-222011
2.0360190868377686,520450744,3.344,-9.094,-0.730,0.000,0.000,0.000,-221993
2.0361340045928955,520453965,3.344,-9.094,-0.730,0.000,0.000,0.000,-222055
2.0362441539764404,520459186,3.344,-9.094,-0.730,0.000,0.000,0.000,-222554
2.0363569259643555,520464406,3.344,-9.094,-0.730,0.000,0.000,0.000,-222165
2.0364770889282227,520468627,3.344,-9.094,-0.730,0.000,0.000,0.000,-222193
2.036585807800293,520473848,3.344,-9.094,-0.730,0.000,0.000,0.000,-222684
2.036703109741211,520479068,3.344,-9.094,-0.730,0.000,0.000,0.000,-221423
2.0368130207061768,520484289,3.344,-9.094,-0.730,0.000,0.000,0.000,-222425
2.036932945251465,520487510,3.344,-9.094,-0.730,0.000,0.000,0.000,-222205
2.0370421409606934,520492730,3.344,-9.094,-0.730,0.000,0.000,0.000,-222011
2.037153959274292,520496950,3.344,-9.094,-0.730,0.000,0.000,0.000,-221630
2.037268877029419,520502170,3.344,-9.094,-0.730,0.000,0.000,0.000,-222619
2.037382125854492,520506391,3.344,-9.094,-0.730,0.000,0.000,0.000,-222786
2.037497043609619,520510612,3.344,-9.094,-0.730,0.000,0.000,0.000,-222539
2.0376081466674805,520515833,3.383,-9.094,-0.691,0.000,0.000,0.000,-222416
2.037727117538452,520519054,3.383,-9.094,-0.691,0.000,0.000,0.000,-221739
2.037838935852051,520525275,3.383,-9.094,-0.691,0.000,0.000,0.000,-221960
2.0379490852355957,520529495,3.383,-9.094,-0.691,0.000,0.000,0.000,-222761
2.0380699634552,520533716,3.383,-9.094,-0.691,0.000,0.000,0.000,-221928
2.0381810665130615,520537936,3.383,-9.094,-0.691,0.000,0.000,0.000,-222568
2.038300037384033,520545156,3.383,-9.094,-0.691,0.000,0.000,0.000,-221343
2.0384109020233154,520548376,3.344,-9.094,-0.691,0.000,0.000,0.000,-222327
2.0385730266571045,520550597,3.344,-9.094,-0.691,0.000,0.000,0.000,-221842
2.0386860370635986,520554818,3.344,-9.094,-0.691,0.000,0.000,0.000,-222385
2.0387978553771973,520559039,3.344,-9.094,-0.691,0.000,0.000,0.000,-221999
2.0389480590820312,520563260,3.344,-9.094,-0.691,0.000,0.000,0.000,-221848
2.039083957672119,520567481,3.344,-9.094,-0.691,0.000,0.000,0.000,-221714
2.03930401802063,520571702,3.344,-9.094,-0.691,0.000,0.000,0.000,-222723
2.039435863494873,520574922,3.305,-9.133,-0.656,0.000,0.000,0.000,-222597
2.03954815864563,520578144,3.305,-9.133,-0.656,0.000,0.000,0.000,-222447
2.0396909713745117,520584367,3.305,-9.133,-0.656,0.000,0.000,0.000,-222414
2.03981614112854,520588588,3.305,-9.133,-0.656,0.000,0.000,0.000,-222256
2.0399348735809326,520592808,3.305,-9.133,-0.656,0.000,0.000,0.000,-221965
2.0400381088256836,520598029,3.305,-9.133,-0.656,0.000,0.000,0.000,-221877
2.040148973464966,520603250,3.305,-9.133,-0.656,0.000,0.000,0.000,-221862
2.0402519702911377,520607471,3.383,-9.098,-0.656,0.000,0.000,0.000,-222880
2.0403549671173096,520609692,3.383,-9.098,-0.656,0.000,0.000,0.000,-222161
2.0404751300811768,520613912,3.383,-9.098,-0.656,0.000,0.000,0.000,-221506
2.0405778884887695,520618132,3.383,-9.098,-0.656,0.000,0.000,0.000,-222558
2.0406949520111084,520622354,3.383,-9.098,-0.656,0.000,0.000,0.000,-222151
2.0408082008361816,520626574,3.383,-9.098,-0.656,0.000,0.000,0.000,-221714
2.0409188270568848,520630795,3.383,-9.098,-0.656,0.000,0.000,0.000,-221954
2.0410220623016357,520635016,3.266,-9.098,-0.730,0.000,0.000,0.000,-222420
2.041124105453491,520637237,3.266,-9.098,-0.730,0.000,0.000,0.000,-221157
2.041236162185669,520641458,3.266,-9.098,-0.730,0.000,0.000,0.000,-222384
2.0413379669189453,520645679,3.266,-9.098,-0.730,0.000,0.000,0.000,-222131
2.041449785232544,520649899,3.266,-9.098,-0.730,0.000,0.000,0.000,-221748
2.041553020477295,520654120,3.266,-9.098,-0.730,0.000,0.000,0.000,-222331
2.041667938232422,520658341,3.266,-9.098,-0.730,0.000,0.000,0.000,-222272
2.0417709350585938,520663563,3.344,-9.098,-0.770,0.000,0.000,0.000,-221800
2.041872978210449,520666784,3.344,-9.098,-0.770,0.000,0.000,0.000,-221018
2.0419869422912598,520673005,3.344,-9.098,-0.770,0.000,0.000,0.000,-222049
2.0420892238616943,520677225,3.344,-9.098,-0.770,0.000,0.000,0.000,-221988
2.0421998500823975,520681446,3.344,-9.098,-0.770,0.000,0.000,0.000,-222085
2.0423028469085693,520685667,3.344,-9.098,-0.770,0.000,0.000,0.000,-221790
2.042414903640747,520690887,3.344,-9.098,-0.770,0.000,0.000,0.000,-223078
2.0425209999084473,520695107,3.305,-9.133,-0.617,0.000,0.000,0.000,-222003
2.0426290035247803,520698328,3.305,-9.133,-0.617,0.000,0.000,0.000,-222274
2.042740821838379,520704549,3.305,-9.133,-0.617,0.000,0.000,0.000,-223053
2.0428431034088135,520708770,3.305,-9.133,-0.617,0.000,0.000,0.000,-221939
2.042957067489624,520712991,3.305,-9.133,-0.617,0.000,0.000,0.000,-221689
2.0430591106414795,520718212,3.305,-9.133,-0.617,0.000,0.000,0.000,-222048
2.043164014816284,520723432,3.305,-9.133,-0.617,0.000,0.000,0.000,-222008
2.043275833129883,520727653,3.383,-9.098,-0.656,0.000,0.000,0.000,-222021
2.0433781147003174,520729873,3.383,-9.098,-0.656,0.000,0.000,0.000,-221705
2.0434889793395996,520734094,3.383,-9.098,-0.656,0.000,0.000,0.000,-222583
2.0435938835144043,520738315,3.383,-9.098,-0.656,0.000,0.000,0.000,-221567
2.0437090396881104,520743536,3.383,-9.098,-0.656,0.000,0.000,0.000,-222227
2.043818950653076,520747757,3.383,-9.098,-0.656,0.000,0.000,0.000,-220959
2.043922185897827,520751978,3.383,-9.098,-0.656,0.000,0.000,0.000,-221557
2.0440428256988525,520756199,3.344,-9.137,-0.656,0.000,0.000,0.000,-222141
2.0441489219665527,520759420,3.344,-9.137,-0.656,0.000,0.000,0.000,-221633
2.0442559719085693,520765641,3.344,-9.137,-0.656,0.000,0.000,0.000,-221459
2.0443711280822754,520769862,3.344,-9.137,-0.656,0.000,0.000,0.000,-222535
2.0444798469543457,520773082,3.344,-9.137,-0.656,0.000,0.000,0.000,-222651
2.0445821285247803,520777302,3.344,-9.137,-0.656,0.000,0.000,0.000,-222210
2.0446889400482178,520782524,3.344,-9.137,-0.656,0.000,0.000,0.000,-222214
2.0448029041290283,520787745,3.383,-9.137,-0.656,0.000,0.000,0.000,-223143
2.0449059009552,520790966,3.383,-9.137,-0.656,0.000,0.000,0.000,-222157
2.0450332164764404,520797187,3.383,-9.137,-0.656,0.000,0.000,0.000,-221713
2.045135974884033,520803407,3.383,-9.137,-0.656,0.000,0.000,0.000,-221731
2.04524302482605,520807628,3.383,-9.137,-0.656,0.000,0.000,0.000,-222497
2.045346975326538,520811848,3.383,-9.137,-0.656,0.000,0.000,0.000,-222093
2.0454518795013428,520816069,3.383,-9.137,-0.656,0.000,0.000,0.000,-220932
2.0455589294433594,520819292,3.305,-9.098,-0.691,0.000,0.000,0.000,-221637
2.0456550121307373,520822512,3.305,-9.098,-0.691,0.000,0.000,0.000,-221865
2.0457608699798584,520828733,3.305,-9.098,-0.691,0.000,0.000,0.000,-221551
2.0458710193634033,520832953,3.305,-9.098,-0.691,0.000,0.000,0.000,-222561
2.0459768772125244,520836174,3.305,-9.098,-0.691,0.000,0.000,0.000,-222251
2.0460751056671143,520840395,3.305,-9.098,-0.691,0.000,0.000,0.000,-222286
2.046325922012329,520845616,3.305,-9.098,-0.691,0.000,0.000,0.000,-222004
2.0465121269226074,520849837,3.305,-9.098,-0.730,0.000,0.000,0.000,-222412
2.046623945236206,520853058,3.305,-9.098,-0.730,0.000,0.000,0.000,-222552
2.046726942062378,520858279,3.305,-9.098,-0.730,0.000,0.000,0.000,-222921
2.046828031539917,520863499,3.305,-9.098,-0.730,0.000,0.000,0.000,-222167
2.046926975250244,520867720,3.305,-9.098,-0.730,0.000,0.000,0.000,-222560
2.0470399856567383,520872940,3.305,-9.098,-0.730,0.000,0.000,0.000,-222025
2.047135829925537,520878161,3.305,-9.098,-0.730,0.000,0.000,0.000,-221622
2.0472450256347656,520883382,3.344,-9.094,-0.691,0.000,0.000,0.000,-221870
2.04734206199646,520885603,3.344,-9.094,-0.691,0.000,0.000,0.000,-222561
2.0474510192871094,520890823,3.344,-9.094,-0.691,0.000,0.000,0.000,-222235
2.04754900932312,520895044,3.344,-9.094,-0.691,0.000,0.000,0.000,-221361
2.0476629734039307,520899264,3.344,-9.094,-0.691,0.000,0.000,0.000,-221791
2.0477731227874756,520904484,3.344,-9.094,-0.691,0.000,0.000,0.000,-222897
2.047884941101074,520908705,3.344,-9.094,-0.691,0.000,0.000,0.000,-222455
2.0480148792266846,520912926,3.344,-9.137,-0.770,0.000,0.000,0.000,-221688
2.0481162071228027,520915147,3.344,-9.137,-0.770,0.000,0.000,0.000,-221238
2.0482170581817627,520919368,3.344,-9.137,-0.770,0.000,0.000,0.000,-222077
2.0483150482177734,520923589,3.344,-9.137,-0.770,0.000,0.000,0.000,-222713
2.048413038253784,520927809,3.344,-9.137,-0.770,0.000,0.000,0.000,-221964
2.048520088195801,520932029,3.344,-9.133,-0.691,0.000,0.000,0.000,-221856
2.048617124557495,520936249,3.344,-9.133,-0.691,0.000,0.000,0.000,-221475
2.0487241744995117,520940470,3.344,-9.133,-0.691,0.000,0.000,0.000,-222165
2.0488579273223877,520944691,3.344,-9.133,-0.691,0.000,0.000,0.000,-221771
2.0489649772644043,520948911,3.344,-9.133,-0.691,0.000,0.000,0.000,-221647
2.0490610599517822,520953132,3.344,-9.133,-0.691,0.000,0.000,0.000,-221951
2.049267053604126,520956353,3.305,-9.098,-0.730,0.000,0.000,0.000,-221837
2.0493760108947754,520958573,3.305,-9.098,-0.730,0.000,0.000,0.000,-221969
2.0557658672332764,520964793,3.305,-9.098,-0.730,0.000,0.000,0.000,-221975
2.0667619705200195,520969014,3.305,-9.098,-0.730,0.000,0.000,0.000,-221894
2.066833019256592,520973235,3.305,-9.098,-0.730,0.000,0.000,0.000,-221526
2.066905975341797,520977456,3.383,-9.133,-0.691,0.000,0.000,0.000,-222732
2.0669798851013184,520979677,3.383,-9.133,-0.691,0.000,0.000,0.000,-221335
2.067049980163574,520984898,3.383,-9.133,-0.691,0.000,0.000,0.000,-222231
2.0671300888061523,520989119,3.383,-9.133,-0.691,0.000,0.000,0.000,-222384
2.067201852798462,520993340,3.383,-9.133,-0.691,0.000,0.000,0.000,-222165
2.0672779083251953,520997562,3.383,-9.133,-0.691,0.000,0.000,0.000,-221012
2.067354917526245,521002783,3.383,-9.133,-0.691,0.000,0.000,0.000,-222409
2.0674400329589844,521006004,3.344,-9.133,-0.730,0.000,0.000,0.000,-221918
2.0675299167633057,521011225,3.344,-9.133,-0.730,0.000,0.000,0.000,-221830
2.067615032196045,521015446,3.344,-9.133,-0.730,0.000,0.000,0.000,-221993
2.0677340030670166,521019667,3.344,-9.133,-0.730,0.000,0.000,0.000,-221606
2.067819833755493,521024888,3.344,-9.133,-0.730,0.000,0.000,0.000,-221892
2.067905902862549,521029108,3.344,-9.137,-0.578,0.000,0.000,0.000,-222352
2.067996025085449,521031329,3.344,-9.137,-0.578,0.000,0.000,0.000,-222057
2.068082094192505,521035550,3.344,-9.137,-0.578,0.000,0.000,0.000,-222033
2.0681729316711426,521039771,3.344,-9.137,-0.578,0.000,0.000,0.000,-222663
2.068258047103882,521043992,3.344,-9.137,-0.578,0.000,0.000,0.000,-221650
2.0683507919311523,521048213,3.344,-9.137,-0.578,0.000,0.000,0.000,-222480
2.0684361457824707,521052434,3.305,-9.133,-0.770,0.000,0.000,0.000,-221749
2.068521022796631,521058654,3.305,-9.133,-0.770,0.000,0.000,0.000,-222056
2.0686230659484863,521063875,3.305,-9.133,-0.770,0.000,0.000,0.000,-222351
2.068711996078491,521068096,3.305,-9.133,-0.770,0.000,0.000,0.000,-222471
2.068809986114502,521072316,3.305,-9.133,-0.770,0.000,0.000,0.000,-222970
2.068895101547241,521076536,3.305,-9.133,-0.770,0.000,0.000,0.000,-221988
2.0689849853515625,521080757,3.344,-9.137,-0.656,0.000,0.000,0.000,-222062
2.069071054458618,521082978,3.344,-9.137,-0.656,0.000,0.000,0.000,-221499
2.069157123565674,521088198,3.344,-9.137,-0.656,0.000,0.000,0.000,-222673
2.069253921508789,521092419,3.344,-9.137,-0.656,0.000,0.000,0.000,-222582
2.0693399906158447,521096640,3.344,-9.137,-0.656,0.000,0.000,0.000,-222193
2.069672107696533,521101861,3.344,-9.137,-0.656,0.000,0.000,0.000,-222315
2.069793939590454,521108082,3.344,-9.137,-0.656,0.000,0.000,0.000,-222421
2.0698819160461426,521112303,3.383,-9.137,-0.656,0.000,0.000,0.000,-222298
2.0699710845947266,521115524,3.383,-9.137,-0.656,0.000,0.000,0.000,-221716
2.070056200027466,521121744,3.383,-9.137,-0.656,0.000,0.000,0.000,-222247
2.0701448917388916,521125965,3.383,-9.137,-0.656,0.000,0.000,0.000,-221959
2.0702309608459473,521131186,3.383,-9.137,-0.656,0.000,0.000,0.000,-221294
2.0703189373016357,521135407,3.383,-9.137,-0.656,0.000,0.000,0.000,-222317
2.0704097747802734,521139628,3.383,-9.137,-0.656,0.000,0.000,0.000,-221829
2.070495128631592,521143849,3.305,-9.094,-0.770,0.000,0.000,0.000,-221329
2.070586919784546,521147070,3.305,-9.094,-0.770,0.000,0.000,0.000,-222361
2.070672035217285,521152291,3.305,-9.094,-0.770,0.000,0.000,0.000,-222478
2.070762872695923,521155512,3.305,-9.094,-0.770,0.000,0.000,0.000,-222863
2.070849895477295,521158732,3.305,-9.094,-0.770,0.000,0.000,0.000,-222325
2.0709359645843506,521163952,3.305,-9.094,-0.770,0.000,0.000,0.000,-221971
2.0710561275482178,521169173,3.305,-9.094,-0.770,0.000,0.000,0.000,-222428
2.0711419582366943,521173396,3.383,-9.137,-0.617,0.000,0.000,0.000,-222286
2.0712318420410156,521175617,3.383,-9.137,-0.617,0.000,0.000,0.000,-222845
2.071316957473755,521180838,3.383,-9.137,-0.617,0.000,0.000,0.000,-221933
2.0714001655578613,521186058,3.383,-9.137,-0.617,0.000,0.000,0.000,-221875
2.0714879035949707,521190278,3.383,-9.137,-0.617,0.000,0.000,0.000,-222501
2.071571111679077,521194499,3.383,-9.137,-0.617,0.000,0.000,0.000,-221408
2.071661949157715,521198720,3.383,-9.137,-0.617,0.000,0.000,0.000,-221602
2.071743965148926,521203940,3.344,-9.094,-0.691,0.000,0.000,0.000,-222585
2.0718398094177246,521206160,3.344,-9.094,-0.691,0.000,0.000,0.000,-221878
2.0719311237335205,521210381,3.344,-9.094,-0.691,0.000,0.000,0.000,-221991
2.0720138549804688,521214602,3.344,-9.094,-0.691,0.000,0.000,0.000,-221995
2.0721030235290527,521217822,3.344,-9.094,-0.691,0.000,0.000,0.000,-221487
2.0721869468688965,521224042,3.344,-9.094,-0.691,0.000,0.000,0.000,-222408
2.0722851753234863,521228263,3.344,-9.094,-0.691,0.000,0.000,0.000,-222268
2.0723679065704346,521232483,3.383,-9.098,-0.656,0.000,0.000,0.000,-221417
2.0724499225616455,521234703,3.383,-9.098,-0.656,0.000,0.000,0.000,-222619
2.072542190551758,521238923,3.383,-9.098,-0.656,0.000,0.000,0.000,-222981
2.072636127471924,521243144,3.383,-9.098,-0.656,0.000,0.000,0.000,-223264
2.07273006439209,521247365,3.383,-9.098,-0.656,0.000,0.000,0.000,-221845
2.07281494140625,521251586,3.383,-9.098,-0.656,0.000,0.000,0.000,-221120
2.0729031562805176,521255807,3.305,-9.133,-0.770,0.000,0.000,0.000,-222331
2.0729880332946777,521259027,3.305,-9.133,-0.770,0.000,0.000,0.000,-222288
2.0730741024017334,521265248,3.305,-9.133,-0.770,0.000,0.000,0.000,-221719
2.0731618404388428,521269469,3.305,-9.133,-0.770,0.000,0.000,0.000,-222197
2.073247194290161,521272689,3.305,-9.133,-0.770,0.000,0.000,0.000,-222398
2.0733370780944824,521276909,3.305,-9.133,-0.770,0.000,0.000,0.000,-221886
2.073421001434326,521281130,3.305,-9.133,-0.770,0.000,0.000,0.000,-222273
2.0735058784484863,521285350,3.344,-9.133,-0.691,0.000,0.000,0.000,-221539
2.0736019611358643,521287571,3.344,-9.133,-0.691,0.000,0.000,0.000,-222526
2.0736868381500244,521291792,3.344,-9.133,-0.691,0.000,0.000,0.000,-222243
2.073780059814453,521297013,3.344,-9.133,-0.691,0.000,0.000,0.000,-221400
2.073868989944458,521300234,3.344,-9.133,-0.691,0.000,0.000,0.000,-221932
2.073951005935669,521305455,3.344,-9.133,-0.691,0.000,0.000,0.000,-222505
2.0740561485290527,521308676,3.344,-9.133,-0.691,0.000,0.000,0.000,-222539
2.07413911819458,521314897,3.344,-9.137,-0.656,0.000,0.000,0.000,-221808
2.074230909347534,521318117,3.344,-9.137,-0.656,0.000,0.000,0.000,-222820
2.0743138790130615,521324340,3.344,-9.137,-0.656,0.000,0.000,0.000,-221814
2.07440185546875,521328561,3.344,-9.137,-0.656,0.000,0.000,0.000,-222052
2.074486017227173,521333781,3.344,-9.137,-0.656,0.000,0.000,0.000,-221565
2.074568033218384,521338002,3.344,-9.137,-0.656,0.000,0.000,0.000,-221916
2.0746657848358154,521343223,3.344,-9.137,-0.656,0.000,0.000,0.000,-222153
2.074747085571289,521346443,3.344,-9.094,-0.730,0.000,0.000,0.000,-222107
2.074842929840088,521351663,3.344,-9.094,-0.730,0.000,0.000,0.000,-222202
2.0749258995056152,521355884,3.344,-9.094,-0.730,0.000,0.000,0.000,-222759
2.0750110149383545,521360105,3.344,-9.094,-0.730,0.000,0.000,0.000,-222634
2.0750999450683594,521364325,3.344,-9.094,-0.730,0.000,0.000,0.000,-222238
2.0751829147338867,521367546,3.305,-9.133,-0.656,0.000,0.000,0.000,-222665
2.07527494430542,521370767,3.305,-9.133,-0.656,0.000,0.000,0.000,-221889
2.075356960296631,521375988,3.305,-9.133,-0.656,0.000,0.000,0.000,-222020
2.0754449367523193,521381208,3.305,-9.133,-0.656,0.000,0.000,0.000,-222004
2.0755319595336914,521385428,3.305,-9.133,-0.656,0.000,0.000,0.000,-222453
2.07561993598938,521389649,3.305,-9.133,-0.656,0.000,0.000,0.000,-221909
2.0757107734680176,521393870,3.305,-9.133,-0.656,0.000,0.000,0.000,-221598
2.075796127319336,521399091,3.344,-9.133,-0.691,0.000,0.000,0.000,-221229
2.07588791847229,521402312,3.344,-9.133,-0.691,0.000,0.000,0.000,-222306
2.0759739875793457,521408533,3.344,-9.133,-0.691,0.000,0.000,0.000,-222493
2.0760560035705566,521412754,3.344,-9.133,-0.691,0.000,0.000,0.000,-222467
2.0761470794677734,521415975,3.344,-9.133,-0.691,0.000,0.000,0.000,-222018
2.076231002807617,521420195,3.344,-9.133,-0.691,0.000,0.000,0.000,-222990
2.0763230323791504,521424416,3.383,-9.133,-0.691,0.000,0.000,0.000,-222488
2.076408863067627,521426637,3.383,-9.133,-0.691,0.000,0.000,0.000,-221895
2.076500177383423,521431858,3.383,-9.133,-0.691,0.000,0.000,0.000,-222260
2.0765888690948486,521436079,3.383,-9.133,-0.691,0.000,0.000,0.000,-221920
2.0766801834106445,521440300,3.383,-9.133,-0.691,0.000,0.000,0.000,-221751
2.0767719745635986,521445520,3.383,-9.133,-0.691,0.000,0.000,0.000,-221868
2.0768539905548096,521450741,3.383,-9.133,-0.691,0.000,0.000,0.000,-222288
2.07694411277771,521454962,3.344,-9.094,-0.691,0.000,0.000,0.000,-222145
2.0770299434661865,521457183,3.344,-9.094,-0.691,0.000,0.000,0.000,-222579
2.0771141052246094,521463405,3.344,-9.094,-0.691,0.000,0.000,0.000,-221614
2.0772042274475098,521467625,3.344,-9.094,-0.691,0.000,0.000,0.000,-223086
2.077285051345825,521471846,3.344,-9.094,-0.691,0.000,0.000,0.000,-222496
2.077378034591675,521476067,3.344,-9.094,-0.691,0.000,0.000,0.000,-222119
2.0774710178375244,521481287,3.344,-9.094,-0.691,0.000,0.000,0.000,-222362
2.0775551795959473,521483492,3.344,-9.094,-0.691,0.000,0.000,0.000,-222362
2.0776569843292236,521488712,3.344,-9.094,-0.691,0.000,0.000,0.000,-221715
2.077737808227539,521492933,3.344,-9.094,-0.691,0.000,0.000,0.000,-222177
2.0778238773345947,521497154,3.344,-9.094,-0.691,0.000,0.000,0.000,-220946
2.0779049396514893,521501374,3.344,-9.094,-0.691,0.000,0.000,0.000,-221698
2.077986001968384,521505597,3.344,-9.094,-0.691,0.000,0.000,0.000,-222321
2.0780720710754395,521508818,3.383,-9.133,-0.691,0.000,0.000,0.000,-222546
2.0781619548797607,521511038,3.383,-9.133,-0.691,0.000,0.000,0.000,-221499
2.078251838684082,521515258,3.383,-9.133,-0.691,0.000,0.000,0.000,-221702
2.0783331394195557,521519479,3.383,-9.133,-0.691,0.000,0.000,0.000,-222227
2.0784192085266113,521524699,3.383,-9.133,-0.691,0.000,0.000,0.000,-222253
2.0785040855407715,521528920,3.383,-9.133,-0.691,0.000,0.000,0.000,-221679
2.0785839557647705,521533141,3.383,-9.133,-0.691,0.000,0.000,0.000,-221800
2.078674077987671,521536361,3.344,-9.176,-0.730,0.000,0.000,0.000,-222274
2.0787549018859863,521538582,3.344,-9.176,-0.730,0.000,0.000,0.000,-222390
2.0788369178771973,521543803,3.344,-9.176,-0.730,0.000,0.000,0.000,-221995
2.078917980194092,521548023,3.344,-9.176,-0.730,0.000,0.000,0.000,-222027
2.079000949859619,521553244,3.344,-9.176,-0.730,0.000,0.000,0.000,-222909
2.07908296585083,521557464,3.344,-9.176,-0.730,0.000,0.000,0.000,-222053
2.079164981842041,521564685,3.344,-9.176,-0.730,0.000,0.000,0.000,-221956
2.07924485206604,521568906,3.305,-9.055,-0.730,0.000,0.000,0.000,-223273
2.0793261528015137,521571127,3.305,-9.055,-0.730,0.000,0.000,0.000,-221828
2.079409122467041,521576350,3.305,-9.055,-0.730,0.000,0.000,0.000,-222152
2.0794899463653564,521580570,3.305,-9.055,-0.730,0.000,0.000,0.000,-221779
2.079571008682251,521584791,3.305,-9.055,-0.730,0.000,0.000,0.000,-222614
2.0796520709991455,521589012,3.305,-9.055,-0.730,0.000,0.000,0.000,-221899
2.079732894897461,521594233,3.305,-9.055,-0.730,0.000,0.000,0.000,-221508
2.0798139572143555,521598454,3.383,-9.137,-0.617,0.000,0.000,0.000,-221635
2.0798938274383545,521601674,3.383,-9.137,-0.617,0.000,0.000,0.000,-221514
2.079975128173828,521607895,3.383,-9.137,-0.617,0.000,0.000,0.000,-222416
2.080054998397827,521612116,3.383,-9.137,-0.617,0.000,0.000,0.000,-222086
2.080933094024658,521616337,3.383,-9.137,-0.617,0.000,0.000,0.000,-221779
2.100084066390991,521620558,3.383,-9.137,-0.617,0.000,0.000,0.000,-222006
2.100158929824829,521625779,3.383,-9.137,-0.617,0.000,0.000,0.000,-222107
2.1002299785614014,521628999,3.344,-9.133,-0.730,0.000,0.000,0.000,-222039
2.100299835205078,521631220,3.344,-9.133,-0.730,0.000,0.000,0.000,-221520
2.1010689735412598,521636441,3.344,-9.133,-0.730,0.000,0.000,0.000,-222005
2.1052470207214355,521640662,3.344,-9.133,-0.730,0.000,0.000,0.000,-222802
2.1104748249053955,521645883,3.344,-9.133,-0.730,0.000,0.000,0.000,-221986
2.1157290935516357,521651104,3.344,-9.137,-0.617,0.000,0.000,0.000,-222129
2.118896961212158,521654325,3.344,-9.137,-0.617,0.000,0.000,0.000,-222518
2.133427143096924,521660547,3.344,-9.137,-0.617,0.000,0.000,0.000,-222086
2.133513927459717,521665768,3.344,-9.137,-0.617,0.000,0.000,0.000,-222342
2.134535074234009,521669989,3.344,-9.137,-0.617,0.000,0.000,0.000,-222650
2.138823986053467,521674210,3.344,-9.137,-0.617,0.000,0.000,0.000,-222690
2.1430399417877197,521678430,3.344,-9.137,-0.617,0.000,0.000,0.000,-221538
2.148244857788086,521683651,3.383,-9.133,-0.730,0.000,0.000,0.000,-222653
2.1505110263824463,521685872,3.383,-9.133,-0.730,0.000,0.000,0.000,-222101
2.155677080154419,521691092,3.383,-9.133,-0.730,0.000,0.000,0.000,-221674
2.1667799949645996,521695312,3.383,-9.133,-0.730,0.000,0.000,0.000,-221534
2.166856050491333,521699533,3.383,-9.133,-0.730,0.000,0.000,0.000,-222718
2.1683290004730225,521703754,3.383,-9.133,-0.730,0.000,0.000,0.000,-222461
2.172618865966797,521707975,3.383,-9.133,-0.730,0.000,0.000,0.000,-223153
2.176807165145874,521712196,3.344,-9.098,-0.656,0.000,0.000,0.000,-221540
2.179996967315674,521715416,3.344,-9.098,-0.656,0.000,0.000,0.000,-221118
2.1861729621887207,521721637,3.344,-9.098,-0.656,0.000,0.000,0.000,-222666
2.2000880241394043,521726858,3.344,-9.098,-0.656,0.000,0.000,0.000,-221771
2.2001819610595703,521731064,3.344,-9.098,-0.656,0.000,0.000,0.000,-221771
2.200269937515259,521735284,3.344,-9.098,-0.656,0.000,0.000,0.000,-222548
2.2040579319000244,521739505,3.344,-9.098,-0.656,0.000,0.000,0.000,-222987
2.209364891052246,521744725,3.383,-9.094,-0.691,0.000,0.000,0.000,-222406
2.21252179145813,521747946,3.383,-9.094,-0.691,0.000,0.000,0.000,-221281
2.217790126800537,521753166,3.383,-9.094,-0.691,0.000,0.000,0.000,-222278
2.221935987472534,521757386,3.383,-9.094,-0.691,0.000,0.000,0.000,-221995
2.2336511611938477,521760607,3.383,-9.094,-0.691,0.000,0.000,0.000,-222591
2.2337429523468018,521765827,3.383,-9.094,-0.691,0.000,0.000,0.000,-221705
2.234633207321167,521770047,3.383,-9.094,-0.691,0.000,0.000,0.000,-222324
2.238862991333008,521774267,3.344,-9.094,-0.730,0.000,0.000,0.000,-222882
2.241097927093506,521776488,3.344,-9.094,-0.730,0.000,0.000,0.000,-222350
2.2452259063720703,521780709,3.344,-9.094,-0.730,0.000,0.000,0.000,-222053
2.2495200634002686,521784930,3.344,-9.094,-0.730,0.000,0.000,0.000,-221830
2.2527031898498535,521788151,3.344,-9.094,-0.730,0.000,0.000,0.000,-222511
2.26678204536438,521793371,3.344,-9.094,-0.730,0.000,0.000,0.000,-221574
2.266855001449585,521797592,3.344,-9.094,-0.730,0.000,0.000,0.000,-222049
2.268342971801758,521803813,3.383,-9.094,-0.691,0.000,0.000,0.000,-222224
2.270548105239868,521806034,3.383,-9.094,-0.691,0.000,0.000,0.000,-223068
2.275858163833618,521811254,3.383,-9.094,-0.691,0.000,0.000,0.000,-221522
2.2831032276153564,521818474,3.383,-9.094,-0.691,0.000,0.000,0.000,-221977
2.30007004737854,521822695,3.383,-9.094,-0.691,0.000,0.000,0.000,-222116
2.300166130065918,521826916,3.383,-9.094,-0.691,0.000,0.000,0.000,-221716
2.300257921218872,521832137,3.383,-9.094,-0.691,0.000,0.000,0.000,-222076
2.3009908199310303,521836358,3.383,-9.133,-0.691,0.000,0.000,0.000,-222189
2.3041670322418213,521839578,3.383,-9.133,-0.691,0.000,0.000,0.000,-222100
2.310404062271118,521845798,3.383,-9.133,-0.691,0.000,0.000,0.000,-221585
2.3146111965179443,521850019,3.383,-9.133,-0.691,0.000,0.000,0.000,-221203
2.3178441524505615,521853240,3.383,-9.133,-0.691,0.000,0.000,0.000,-222584
2.333425998687744,521858460,3.383,-9.133,-0.691,0.000,0.000,0.000,-222007
2.333498954772949,521863681,3.383,-9.133,-0.691,0.000,0.000,0.000,-221932
2.333568811416626,521867902,3.344,-9.133,-0.730,0.000,0.000,0.000,-222286
2.3356881141662598,521871123,3.344,-9.133,-0.730,0.000,0.000,0.000,-221393
2.340972900390625,521876346,3.344,-9.133,-0.730,0.000,0.000,0.000,-222052
2.345141887664795,521880566,3.344,-9.137,-0.656,0.000,0.000,0.000,-221608
2.3485519886016846,521883786,3.344,-9.137,-0.656,0.000,0.000,0.000,-221792
2.353576183319092,521889006,3.344,-9.137,-0.656,0.000,0.000,0.000,-222979
2.366825819015503,521894227,3.344,-9.137,-0.656,0.000,0.000,0.000,-221956
2.3669028282165527,521898447,3.344,-9.137,-0.656,0.000,0.000,0.000,-221748
2.3682990074157715,521903668,3.344,-9.137,-0.656,0.000,0.000,0.000,-221939
2.373486042022705,521908889,3.344,-9.137,-0.656,0.000,0.000,0.000,-222207
2.3786988258361816,521914109,3.344,-9.094,-0.730,0.000,0.000,0.000,-221772
2.380854845046997,521916330,3.344,-9.094,-0.730,0.000,0.000,0.000,-221872
2.3850419521331787,521920550,3.344,-9.094,-0.730,0.000,0.000,0.000,-222025
2.400123119354248,521924771,3.344,-9.094,-0.730,0.000,0.000,0.000,-222261
2.4001970291137695,521927992,3.344,-9.094,-0.730,0.000,0.000,0.000,-221407
2.4002699851989746,521932213,3.344,-9.094,-0.730,0.000,0.000,0.000,-221853
2.4010419845581055,521936433,3.344,-9.094,-0.730,0.000,0.000,0.000,-222208
2.406627893447876,521941653,3.344,-9.098,-0.656,0.000,0.000,0.000,-222252
2.4084949493408203,521943873,3.344,-9.098,-0.656,0.000,0.000,0.000,-222569
2.413674831390381,521949094,3.344,-9.098,-0.656,0.000,0.000,0.000,-221039
2.417982816696167,521953315,3.344,-9.098,-0.656,0.000,0.000,0.000,-222759
2.422086000442505,521957536,3.344,-9.098,-0.656,0.000,0.000,0.000,-222310
2.433436155319214,521961757,3.344,-9.098,-0.656,0.000,0.000,0.000,-222290
2.4335100650787354,521965978,3.344,-9.098,-0.656,0.000,0.000,0.000,-222536
2.4337151050567627,521969198,3.383,-9.133,-0.730,0.000,0.000,0.000,-222867
2.436053991317749,521971418,3.383,-9.133,-0.730,0.000,0.000,0.000,-221813
2.441416025161743,521976639,3.383,-9.133,-0.730,0.000,0.000,0.000,-221787
2.4453799724578857,521980860,3.383,-9.133,-0.730,0.000,0.000,0.000,-221741
2.4507269859313965,521986081,3.383,-9.133,-0.730,0.000,0.000,0.000,-222535
2.4548521041870117,521990301,3.383,-9.133,-0.730,0.000,0.000,0.000,-222226
2.466848850250244,521995521,3.383,-9.133,-0.730,0.000,0.000,0.000,-221389
2.4669458866119385,521999742,3.383,-9.094,-0.691,0.000,0.000,0.000,-221702
2.46753191947937,522002963,3.383,-9.094,-0.691,0.000,0.000,0.000,-222599
2.4738099575042725,522009184,3.383,-9.094,-0.691,0.000,0.000,0.000,-221968
2.4779648780822754,522013405,3.383,-9.094,-0.691,0.000,0.000,0.000,-222214
2.481214761734009,522016625,3.383,-9.094,-0.691,0.000,0.000,0.000,-221784
2.486522912979126,522021846,3.383,-9.094,-0.691,0.000,0.000,0.000,-221955
2.5003209114074707,522027067,3.383,-9.094,-0.691,0.000,0.000,0.000,-222552
2.500413179397583,522031287,3.344,-9.094,-0.691,0.000,0.000,0.000,-222197
2.5005059242248535,522034508,3.344,-9.094,-0.691,0.000,0.000,0.000,-221606
2.5053648948669434,522040729,3.344,-9.094,-0.691,0.000,0.000,0.000,-221771
2.5107219219207764,522045950,3.344,-9.094,-0.691,0.000,0.000,0.000,-221819
2.515777826309204,522051171,3.344,-9.094,-0.691,0.000,0.000,0.000,-222346
2.5199568271636963,522055392,3.344,-9.094,-0.691,0.000,0.000,0.000,-222472
2.533493995666504,522059613,3.344,-9.094,-0.691,0.000,0.000,0.000,-222646
2.533565044403076,522065834,3.344,-9.098,-0.656,0.000,0.000,0.000,-223029
2.533640146255493,522069055,3.344,-9.098,-0.656,0.000,0.000,0.000,-221685
2.5388870239257812,522074275,3.344,-9.098,-0.656,0.000,0.000,0.000,-221750
2.5440919399261475,522079496,3.344,-9.098,-0.656,0.000,0.000,0.000,-222591
2.5483171939849854,522083717,3.344,-9.098,-0.656,0.000,0.000,0.000,-220809
2.553481101989746,522088938,3.344,-9.098,-0.656,0.000,0.000,0.000,-223008
2.566762924194336,522094159,3.344,-9.098,-0.656,0.000,0.000,0.000,-222650
2.56683611869812,522098380,3.344,-9.094,-0.691,0.000,0.000,0.000,-221970
2.5669069290161133,522100601,3.344,-9.094,-0.691,0.000,0.000,0.000,-222275
2.57037091255188,522105822,3.344,-9.094,-0.691,0.000,0.000,0.000,-222157
2.574671983718872,522110043,3.344,-9.094,-0.691,0.000,0.000,0.000,-221499
2.5788559913635254,522114264,3.344,-9.094,-0.691,0.000,0.000,0.000,-222194
2.584113121032715,522119485,3.344,-9.094,-0.691,0.000,0.000,0.000,-222865
2.600121021270752,522124705,3.344,-9.094,-0.691,0.000,0.000,0.000,-222214
2.6001949310302734,522128926,3.383,-9.094,-0.691,0.000,0.000,0.000,-221490
2.600266933441162,522132146,3.383,-9.094,-0.691,0.000,0.000,0.000,-221620
2.6019930839538574,522137366,3.383,-9.094,-0.691,0.000,0.000,0.000,-221576
2.607213020324707,522142588,3.383,-9.094,-0.691,0.000,0.000,0.000,-222075
2.61139178276062,522146809,3.383,-9.094,-0.691,0.000,0.000,0.000,-222130
2.615633010864258,522151029,3.383,-9.094,-0.691,0.000,0.000,0.000,-222244
2.619813919067383,522155250,3.383,-9.094,-0.691,0.000,0.000,0.000,-222686
2.6334590911865234,522158471,3.305,-9.098,-0.730,0.000,0.000,0.000,-222005
2.6335341930389404,522161691,3.305,-9.098,-0.730,0.000,0.000,0.000,-221803
2.6336071491241455,522166912,3.305,-9.098,-0.730,0.000,0.000,0.000,-222204
2.636679172515869,522172133,3.305,-9.098,-0.730,0.000,0.000,0.000,-222032
2.640984058380127,522176353,3.305,-9.098,-0.730,0.000,0.000,0.000,-222175
2.6461751461029053,522181573,3.305,-9.098,-0.730,0.000,0.000,0.000,-221688
2.6523549556732178,522187794,3.305,-9.098,-0.730,0.000,0.000,0.000,-222630
2.6667261123657227,522192015,3.383,-9.137,-0.656,0.000,0.000,0.000,-223325
2.6668200492858887,522195236,3.383,-9.137,-0.656,0.000,0.000,0.000,-222720
2.6669111251831055,522200457,3.383,-9.137,-0.656,0.000,0.000,0.000,-221790
2.670254945755005,522205678,3.383,-9.137,-0.656,0.000,0.000,0.000,-221615
2.6745288372039795,522209899,3.383,-9.137,-0.656,0.000,0.000,0.000,-222414
2.6787118911743164,522214119,3.383,-9.137,-0.656,0.000,0.000,0.000,-221606
2.6828789710998535,522218341,3.383,-9.137,-0.656,0.000,0.000,0.000,-222762
2.6881470680236816,522223561,3.344,-9.094,-0.691,0.000,0.000,0.000,-222108
2.7002038955688477,522226781,3.344,-9.094,-0.691,0.000,0.000,0.000,-222750
2.7002978324890137,522232001,3.344,-9.094,-0.691,0.000,0.000,0.000,-222387
2.701929807662964,522237221,3.344,-9.094,-0.691,0.000,0.000,0.000,-222289
2.7061049938201904,522241442,3.344,-9.094,-0.691,0.000,0.000,0.000,-223119
2.7111899852752686,522246662,3.344,-9.094,-0.691,0.000,0.000,0.000,-221895
2.715488910675049,522250883,3.344,-9.094,-0.691,0.000,0.000,0.000,-221917
2.719998836517334,522255103,3.266,-9.133,-0.809,0.000,0.000,0.000,-222387
2.72918701171875,522258325,3.266,-9.133,-0.809,0.000,0.000,0.000,-221763
2.7336580753326416,522264546,3.266,-9.133,-0.809,0.000,0.000,0.000,-222020
2.733755111694336,522268767,3.266,-9.133,-0.809,0.000,0.000,0.000,-222092
2.7376208305358887,522272987,3.266,-9.133,-0.809,0.000,0.000,0.000,-222142
2.741842031478882,522277207,3.266,-9.133,-0.809,0.000,0.000,0.000,-221731
2.747025966644287,522282428,3.266,-9.133,-0.809,0.000,0.000,0.000,-222142
2.7512459754943848,522286649,3.305,-9.133,-0.656,0.000,0.000,0.000,-222426
2.754422903060913,522289869,3.305,-9.133,-0.656,0.000,0.000,0.000,-222245
2.7670040130615234,522296089,3.305,-9.133,-0.656,0.000,0.000,0.000,-222362
2.7671029567718506,522300310,3.305,-9.133,-0.656,0.000,0.000,0.000,-222213
2.7691969871520996,522304531,3.305,-9.133,-0.656,0.000,0.000,0.000,-221824
2.7743918895721436,522309752,3.305,-9.133,-0.656,0.000,0.000,0.000,-222279
2.7805888652801514,522315973,3.305,-9.133,-0.656,0.000,0.000,0.000,-221926
2.7848060131073,522320194,3.383,-9.137,-0.617,0.000,0.000,0.000,-222367
2.788073778152466,522323414,3.383,-9.137,-0.617,0.000,0.000,0.000,-222329
2.8001041412353516,522329635,3.383,-9.137,-0.617,0.000,0.000,0.000,-222891
2.800201892852783,522333855,3.383,-9.137,-0.617,0.000,0.000,0.000,-221925
2.801705837249756,522337076,3.383,-9.137,-0.617,0.000,0.000,0.000,-222574
2.805925130844116,522341297,3.383,-9.137,-0.617,0.000,0.000,0.000,-222423
2.8111090660095215,522346517,3.383,-9.137,-0.617,0.000,0.000,0.000,-222410
2.8143279552459717,522349737,3.344,-9.055,-0.770,0.000,0.000,0.000,-222306
2.8195810317993164,522354958,3.344,-9.055,-0.770,0.000,0.000,0.000,-222645
2.8237969875335693,522359178,3.344,-9.055,-0.770,0.000,0.000,0.000,-222136
2.833449125289917,522364399,3.344,-9.055,-0.770,0.000,0.000,0.000,-222065
2.833549976348877,522368620,3.344,-9.055,-0.770,0.000,0.000,0.000,-222380
2.8374929428100586,522372841,3.344,-9.055,-0.770,0.000,0.000,0.000,-222004
2.841695785522461,522377062,3.344,-9.133,-0.691,0.000,0.000,0.000,-222427
2.844881057739258,522380283,3.344,-9.133,-0.691,0.000,0.000,0.000,-222004
2.851109027862549,522386504,3.344,-9.133,-0.691,0.000,0.000,0.000,-222331
2.8552911281585693,522390724,3.344,-9.133,-0.691,0.000,0.000,0.000,-222589
2.8667540550231934,522394945,3.344,-9.133,-0.691,0.000,0.000,0.000,-221484
2.8668508529663086,522399165,3.344,-9.133,-0.691,0.000,0.000,0.000,-222673
2.869028091430664,522404386,3.344,-9.133,-0.691,0.000,0.000,0.000,-222085
2.8732571601867676,522408607,3.383,-9.133,-0.691,0.000,0.000,0.000,-221959
2.876447916030884,522411827,3.383,-9.133,-0.691,0.000,0.000,0.000,-222237
2.8816559314727783,522417048,3.383,-9.133,-0.691,0.000,0.000,0.000,-221616
2.885890007019043,522421268,3.383,-9.133,-0.691,0.000,0.000,0.000,-222749
2.9001119136810303,522426489,3.383,-9.133,-0.691,0.000,0.000,0.000,-221980
2.900183916091919,522430710,3.383,-9.133,-0.691,0.000,0.000,0.000,-221648
2.9002559185028076,522434931,3.383,-9.133,-0.691,0.000,0.000,0.000,-221679
2.9038009643554688,522439152,3.383,-9.094,-0.691,0.000,0.000,0.000,-222206
2.907027006149292,522442373,3.383,-9.094,-0.691,0.000,0.000,0.000,-222022
2.9122190475463867,522447596,3.383,-9.094,-0.691,0.000,0.000,0.000,-222186
2.916429042816162,522451816,3.383,-9.094,-0.691,0.000,0.000,0.000,-221553
2.9216699600219727,522457037,3.383,-9.094,-0.691,0.000,0.000,0.000,-222570
2.9334371089935303,522461258,3.383,-9.094,-0.691,0.000,0.000,0.000,-221762
2.9335100650787354,522466479,3.383,-9.094,-0.691,0.000,0.000,0.000,-222056
2.934410810470581,522469700,3.344,-9.133,-0.730,0.000,0.000,0.000,-222157
2.939578056335449,522474921,3.344,-9.133,-0.730,0.000,0.000,0.000,-221858
2.9437739849090576,522479142,3.344,-9.133,-0.730,0.000,0.000,0.000,-222615
2.9489240646362305,522484362,3.344,-9.133,-0.730,0.000,0.000,0.000,-222572
2.9532408714294434,522488583,3.344,-9.133,-0.730,0.000,0.000,0.000,-222260
2.966754913330078,522492804,3.344,-9.133,-0.730,0.000,0.000,0.000,-222075
2.9668519496917725,522497025,3.383,-9.094,-0.730,0.000,0.000,0.000,-222256
2.966948986053467,522500246,3.383,-9.094,-0.730,0.000,0.000,0.000,-221949
2.9711248874664307,522506467,3.383,-9.094,-0.730,0.000,0.000,0.000,-222272
2.9754841327667236,522510688,3.383,-9.094,-0.730,0.000,0.000,0.000,-221369
2.9795260429382324,522514909,3.383,-9.094,-0.730,0.000,0.000,0.000,-221753
2.9837329387664795,522519130,3.383,-9.094,-0.730,0.000,0.000,0.000,-221963
2.988924026489258,522524350,3.383,-9.094,-0.730,0.000,0.000,0.000,-222614
3.0002810955047607,522528555,3.344,-9.137,-0.617,0.000,0.000,0.000,-222614
3.0003790855407715,522531777,3.344,-9.137,-0.617,0.000,0.000,0.000,-222186
3.001654863357544,522536997,3.344,-9.137,-0.617,0.000,0.000,0.000,-221759
3.005868911743164,522541217,3.344,-9.137,-0.617,0.000,0.000,0.000,-222780
3.011064052581787,522546437,3.344,-9.137,-0.617,0.000,0.000,0.000,-221808
3.015263080596924,522550658,3.344,-9.137,-0.617,0.000,0.000,0.000,-222700
3.01948881149292,522554879,3.344,-9.137,-0.617,0.000,0.000,0.000,-221862
3.0236470699310303,522559100,3.344,-9.094,-0.691,0.000,0.000,0.000,-222230
3.0336039066314697,522562322,3.344,-9.094,-0.691,0.000,0.000,0.000,-221670
3.0340771675109863,522569542,3.344,-9.094,-0.691,0.000,0.000,0.000,-222317
3.038442850112915,522573763,3.344,-9.094,-0.691,0.000,0.000,0.000,-222163
3.041628122329712,522576983,3.344,-9.094,-0.691,0.000,0.000,0.000,-222069
3.045806884765625,522581204,3.344,-9.094,-0.691,0.000,0.000,0.000,-222309
3.050032138824463,522585425,3.344,-9.094,-0.691,0.000,0.000,0.000,-222132
3.0532708168029785,522588646,3.305,-9.098,-0.730,0.000,0.000,0.000,-222243
3.0667481422424316,522590866,3.305,-9.098,-0.730,0.000,0.000,0.000,-222300
3.0668210983276367,522596087,3.305,-9.098,-0.730,0.000,0.000,0.000,-221826
3.06689190864563,522601307,3.305,-9.098,-0.730,0.000,0.000,0.000,-221672
3.070089817047119,522605527,3.305,-9.098,-0.730,0.000,0.000,0.000,-221918
3.074355125427246,522609748,3.305,-9.098,-0.730,0.000,0.000,0.000,-222394
3.0798838138580322,522614969,3.305,-9.098,-0.730,0.000,0.000,0.000,-221300
3.083796977996826,522619190,3.344,-9.098,-0.617,0.000,0.000,0.000,-221794
3.0869410037994385,522622411,3.344,-9.098,-0.617,0.000,0.000,0.000,-222641
3.100147008895874,522628632,3.344,-9.098,-0.617,0.000,0.000,0.000,-221490
3.1002190113067627,522632852,3.344,-9.098,-0.617,0.000,0.000,0.000,-222316
3.101663827896118,522637073,3.344,-9.098,-0.617,0.000,0.000,0.000,-222364
3.1068508625030518,522642293,3.344,-9.098,-0.617,0.000,0.000,0.000,-222072
3.112051010131836,522647514,3.344,-9.098,-0.617,0.000,0.000,0.000,-222531
3.1334481239318848,522651735,3.305,-9.098,-0.730,0.000,0.000,0.000,-222570
3.133542060852051,522654956,3.305,-9.098,-0.730,0.000,0.000,0.000,-222038
3.133615016937256,522660176,3.305,-9.098,-0.730,0.000,0.000,0.000,-221316
3.133687973022461,522665396,3.305,-9.098,-0.730,0.000,0.000,0.000,-222000
3.1341350078582764,522669617,3.305,-9.098,-0.730,0.000,0.000,0.000,-222618
3.1384990215301514,522673837,3.305,-9.098,-0.730,0.000,0.000,0.000,-222017
3.142693042755127,522678058,3.305,-9.098,-0.730,0.000,0.000,0.000,-221593
3.145925998687744,522681279,3.344,-9.098,-0.770,0.000,0.000,0.000,-221672
3.1491189002990723,522684499,3.344,-9.098,-0.770,0.000,0.000,0.000,-222350
3.1542398929595947,522689720,3.344,-9.098,-0.770,0.000,0.000,0.000,-222279
3.1667590141296387,522693941,3.344,-9.098,-0.770,0.000,0.000,0.000,-222758
3.1668310165405273,522697161,3.344,-9.098,-0.770,0.000,0.000,0.000,-221704
3.166903018951416,522701381,3.344,-9.098,-0.770,0.000,0.000,0.000,-221534
3.1701500415802,522705602,3.344,-9.098,-0.770,0.000,0.000,0.000,-222431
3.173464059829712,522708824,3.344,-9.137,-0.578,0.000,0.000,0.000,-221810
3.1765921115875244,522712045,3.344,-9.137,-0.578,0.000,0.000,0.000,-221690
3.1818630695343018,522717266,3.344,-9.137,-0.578,0.000,0.000,0.000,-222616
3.186087131500244,522721487,3.344,-9.137,-0.578,0.000,0.000,0.000,-221951
3.2001068592071533,522725707,3.344,-9.137,-0.578,0.000,0.000,0.000,-221816
3.2001800537109375,522729928,3.344,-9.137,-0.578,0.000,0.000,0.000,-222626
3.2002530097961426,522735149,3.344,-9.137,-0.578,0.000,0.000,0.000,-221863
3.2039661407470703,522739369,3.344,-9.133,-0.730,0.000,0.000,0.000,-221552
3.207406997680664,522742590,3.344,-9.133,-0.730,0.000,0.000,0.000,-221785
3.2134289741516113,522748811,3.344,-9.133,-0.730,0.000,0.000,0.000,-220665
3.217641830444336,522753031,3.344,-9.133,-0.730,0.000,0.000,0.000,-221824
3.220853805541992,522756251,3.344,-9.133,-0.730,0.000,0.000,0.000,-222439
3.2250170707702637,522760472,3.344,-9.133,-0.730,0.000,0.000,0.000,-222245
3.233489990234375,522764693,3.344,-9.133,-0.730,0.000,0.000,0.000,-221030
3.2345690727233887,522769914,3.305,-9.098,-0.691,0.000,0.000,0.000,-222339
3.2366738319396973,522772135,3.305,-9.098,-0.691,0.000,0.000,0.000,-222641
3.2419989109039307,522777356,3.305,-9.098,-0.691,0.000,0.000,0.000,-222151
3.2462339401245117,522781577,3.305,-9.098,-0.691,0.000,0.000,0.000,-221564
3.2504091262817383,522785798,3.305,-9.098,-0.691,0.000,0.000,0.000,-222835
3.254635810852051,522790019,3.305,-9.098,-0.691,0.000,0.000,0.000,-222471
3.2669641971588135,522794240,3.305,-9.098,-0.691,0.000,0.000,0.000,-221994
3.2670581340789795,522797461,3.383,-9.133,-0.691,0.000,0.000,0.000,-221981
3.2671499252319336,522799682,3.383,-9.133,-0.691,0.000,0.000,0.000,-221716
3.2695178985595703,522804903,3.383,-9.133,-0.691,0.000,0.000,0.000,-222302
3.2736921310424805,522809123,3.383,-9.133,-0.691,0.000,0.000,0.000,-222392
3.2799410820007324,522815343,3.383,-9.133,-0.691,0.000,0.000,0.000,-220740
3.284212827682495,522819564,3.383,-9.133,-0.691,0.000,0.000,0.000,-222036
3.2893998622894287,522824785,3.383,-9.133,-0.691,0.000,0.000,0.000,-222637
3.3002769947052,522829005,3.305,-9.098,-0.730,0.000,0.000,0.000,-221985
3.3004250526428223,522832225,3.305,-9.098,-0.730,0.000,0.000,0.000,-222314
3.302104949951172,522837446,3.305,-9.098,-0.730,0.000,0.000,0.000,-222204
3.3062198162078857,522841667,3.305,-9.098,-0.730,0.000,0.000,0.000,-222560
3.3105549812316895,522845887,3.305,-9.098,-0.730,0.000,0.000,0.000,-222747
3.315751075744629,522851108,3.305,-9.098,-0.730,0.000,0.000,0.000,-222191
3.319936990737915,522855330,3.305,-9.098,-0.730,0.000,0.000,0.000,-221919
3.3241379261016846,522859551,3.383,-9.133,-0.691,0.000,0.000,0.000,-222168
3.333439826965332,522862772,3.383,-9.133,-0.691,0.000,0.000,0.000,-221915
3.3335649967193604,522868993,3.383,-9.133,-0.691,0.000,0.000,0.000,-222080
3.3378689289093018,522873214,3.383,-9.133,-0.691,0.000,0.000,0.000,-222855
3.3410778045654297,522876435,3.383,-9.133,-0.691,0.000,0.000,0.000,-222255
3.3452818393707275,522880656,3.383,-9.133,-0.691,0.000,0.000,0.000,-221722
3.34951114654541,522884877,3.383,-9.133,-0.691,0.000,0.000,0.000,-221379
3.3547539710998535,522890098,3.305,-9.094,-0.770,0.000,0.000,0.000,-222430
3.357900857925415,522893318,3.305,-9.094,-0.770,0.000,0.000,0.000,-222036
3.3667750358581543,522897538,3.305,-9.094,-0.770,0.000,0.000,0.000,-222492
3.3668792247772217,522901759,3.305,-9.094,-0.770,0.000,0.000,0.000,-222096
3.370629072189331,522905979,3.305,-9.094,-0.770,0.000,0.000,0.000,-221802
3.3749279975891113,522910199,3.305,-9.094,-0.770,0.000,0.000,0.000,-222615
3.379045009613037,522914419,3.305,-9.094,-0.770,0.000,0.000,0.000,-222024
3.3822848796844482,522917640,3.344,-9.098,-0.656,0.000,0.000,0.000,-222591
3.3854269981384277,522920860,3.344,-9.098,-0.656,0.000,0.000,0.000,-221906
3.391663074493408,522927081,3.344,-9.098,-0.656,0.000,0.000,0.000,-222464
3.400113105773926,522931302,3.344,-9.098,-0.656,0.000,0.000,0.000,-221296
3.400218963623047,522935523,3.344,-9.098,-0.656,0.000,0.000,0.000,-222271
3.404395818710327,522939743,3.344,-9.098,-0.656,0.000,0.000,0.000,-222601
3.4096169471740723,522944964,3.344,-9.098,-0.656,0.000,0.000,0.000,-221920
3.413815975189209,522949185,3.344,-9.137,-0.656,0.000,0.000,0.000,-222246
3.4170961380004883,522952406,3.344,-9.137,-0.656,0.000,0.000,0.000,-222246
3.4222519397735596,522957627,3.344,-9.137,-0.656,0.000,0.000,0.000,-222223
3.4264309406280518,522961847,3.344,-9.137,-0.656,0.000,0.000,0.000,-222146
3.4334499835968018,522967068,3.344,-9.137,-0.656,0.000,0.000,0.000,-221145
3.4368679523468018,522972289,3.344,-9.137,-0.656,0.000,0.000,0.000,-223572
3.441169023513794,522976510,3.344,-9.137,-0.656,0.000,0.000,0.000,-222120
3.445362091064453,522980730,3.305,-9.137,-0.730,0.000,0.000,0.000,-221182
3.4485831260681152,522983951,3.305,-9.137,-0.730,0.000,0.000,0.000,-221788
3.45474910736084,522990172,3.305,-9.137,-0.730,0.000,0.000,0.000,-222500
3.459049940109253,522994392,3.305,-9.137,-0.730,0.000,0.000,0.000,-221118
3.4668259620666504,522998613,3.305,-9.137,-0.730,0.000,0.000,0.000,-221843
3.4684689044952393,523003834,3.305,-9.137,-0.730,0.000,0.000,0.000,-222406
3.473757028579712,523009055,3.305,-9.137,-0.730,0.000,0.000,0.000,-222675
3.476943016052246,523012276,3.383,-9.094,-0.691,0.000,0.000,0.000,-221778
3.479135036468506,523014497,3.383,-9.094,-0.691,0.000,0.000,0.000,-221793
3.4843649864196777,523019718,3.383,-9.094,-0.691,0.000,0.000,0.000,-222426
3.4896018505096436,523024939,3.383,-9.094,-0.691,0.000,0.000,0.000,-222541
3.49373197555542,523029160,3.383,-9.094,-0.691,0.000,0.000,0.000,-222302
3.5003700256347656,523034381,3.383,-9.094,-0.691,0.000,0.000,0.000,-222149
3.503232002258301,523038602,3.305,-9.133,-0.617,0.000,0.000,0.000,-222475
3.50547194480896,523040823,3.305,-9.133,-0.617,0.000,0.000,0.000,-222193
3.511686086654663,523047044,3.305,-9.133,-0.617,0.000,0.000,0.000,-220718
3.5158910751342773,523051265,3.305,-9.133,-0.617,0.000,0.000,0.000,-221986
3.52008318901062,523055486,3.305,-9.133,-0.617,0.000,0.000,0.000,-221859
3.5243618488311768,523059706,3.305,-9.133,-0.617,0.000,0.000,0.000,-222092
3.5295231342315674,523064927,3.305,-9.098,-0.730,0.000,0.000,0.000,-221268
3.5337162017822266,523067148,3.305,-9.098,-0.730,0.000,0.000,0.000,-222079
3.5390381813049316,523074369,3.305,-9.098,-0.730,0.000,0.000,0.000,-222372
3.543278932571411,523078590,3.305,-9.098,-0.730,0.000,0.000,0.000,-222191
3.547410011291504,523082811,3.305,-9.098,-0.730,0.000,0.000,0.000,-221732
3.5516929626464844,523087031,3.383,-9.094,-0.691,0.000,0.000,0.000,-221935
3.5548949241638184,523090251,3.383,-9.094,-0.691,0.000,0.000,0.000,-222788
3.5611369609832764,523096472,3.383,-9.094,-0.691,0.000,0.000,0.000,-222185
3.566802978515625,523100693,3.383,-9.094,-0.691,0.000,0.000,0.000,-221452
3.5695550441741943,523104914,3.383,-9.094,-0.691,0.000,0.000,0.000,-222093
3.5738210678100586,523109135,3.383,-9.094,-0.691,0.000,0.000,0.000,-221932
3.5769691467285156,523112355,3.383,-9.094,-0.691,0.000,0.000,0.000,-221914
3.5812430381774902,523116576,3.305,-9.098,-0.730,0.000,0.000,0.000,-221641
3.58444881439209,523119797,3.305,-9.098,-0.730,0.000,0.000,0.000,-221415
3.5916759967803955,523127018,3.305,-9.098,-0.730,0.000,0.000,0.000,-222391
3.600148916244507,523132239,3.305,-9.098,-0.730,0.000,0.000,0.000,-221943
3.6011080741882324,523136459,3.305,-9.098,-0.730,0.000,0.000,0.000,-222754
3.605349063873291,523140679,3.305,-9.098,-0.730,0.000,0.000,0.000,-222132
3.610550880432129,523145900,3.305,-9.098,-0.730,0.000,0.000,0.000,-221632
3.6147890090942383,523150121,3.383,-9.137,-0.656,0.000,0.000,0.000,-221662
3.6180078983306885,523153342,3.383,-9.137,-0.656,0.000,0.000,0.000,-221952
3.6232099533081055,523158563,3.383,-9.137,-0.656,0.000,0.000,0.000,-221979
3.6274590492248535,523162784,3.383,-9.137,-0.656,0.000,0.000,0.000,-221580
3.6334779262542725,523168005,3.383,-9.137,-0.656,0.000,0.000,0.000,-222420
3.637134075164795,523172226,3.383,-9.137,-0.656,0.000,0.000,0.000,-222840
3.6411209106445312,523176447,3.383,-9.137,-0.656,0.000,0.000,0.000,-222176
3.646301031112671,523181668,3.344,-9.098,-0.656,0.000,0.000,0.000,-221832
3.649576187133789,523184889,3.344,-9.098,-0.656,0.000,0.000,0.000,-221755
3.6557600498199463,523191095,3.344,-9.098,-0.656,0.000,0.000,0.000,-221755
3.6600711345672607,523195315,3.344,-9.098,-0.656,0.000,0.000,0.000,-222687
3.666814088821411,523199536,3.344,-9.098,-0.656,0.000,0.000,0.000,-222309
3.6694328784942627,523204756,3.344,-9.098,-0.656,0.000,0.000,0.000,-222281
3.6736629009246826,523208977,3.344,-9.098,-0.656,0.000,0.000,0.000,-221612
3.6778311729431152,523213197,3.383,-9.055,-0.770,0.000,0.000,0.000,-222339
3.6810710430145264,523216418,3.383,-9.055,-0.770,0.000,0.000,0.000,-222355
3.6863138675689697,523221639,3.383,-9.055,-0.770,0.000,0.000,0.000,-222447
3.6914851665496826,523226860,3.383,-9.055,-0.770,0.000,0.000,0.000,-222829
3.694728136062622,523230081,3.383,-9.055,-0.770,0.000,0.000,0.000,-222158
3.700150966644287,523234301,3.383,-9.055,-0.770,0.000,0.000,0.000,-221992
3.7032060623168945,523238524,3.383,-9.055,-0.770,0.000,0.000,0.000,-222331
3.707373857498169,523242745,3.344,-9.137,-0.656,0.000,0.000,0.000,-222179
3.7096309661865234,523244965,3.344,-9.137,-0.656,0.000,0.000,0.000,-222216
3.7148070335388184,523250186,3.344,-9.137,-0.656,0.000,0.000,0.000,-221939
3.7190349102020264,523254407,3.344,-9.137,-0.656,0.000,0.000,0.000,-222673
3.7222540378570557,523257628,3.344,-9.137,-0.656,0.000,0.000,0.000,-221659
3.73347806930542,523261849,3.344,-9.137,-0.656,0.000,0.000,0.000,-222494
3.733551025390625,523266069,3.344,-9.137,-0.656,0.000,0.000,0.000,-222031
3.735013008117676,523270290,3.344,-9.094,-0.730,0.000,0.000,0.000,-222294
3.7371509075164795,523272511,3.344,-9.094,-0.730,0.000,0.000,0.000,-222019
3.742431879043579,523277732,3.344,-9.094,-0.730,0.000,0.000,0.000,-221826
3.7465779781341553,523281953,3.344,-9.094,-0.730,0.000,0.000,0.000,-222014
3.751818895339966,523287173,3.344,-9.094,-0.730,0.000,0.000,0.000,-222114
3.766983985900879,523291394,3.344,-9.094,-0.730,0.000,0.000,0.000,-221905
3.76711106300354,523295600,3.344,-9.094,-0.730,0.000,0.000,0.000,-221905
3.767235040664673,523299820,3.305,-9.098,-0.691,0.000,0.000,0.000,-222235
3.7676379680633545,523303041,3.305,-9.098,-0.691,0.000,0.000,0.000,-222645
3.773961067199707,523309262,3.305,-9.098,-0.691,0.000,0.000,0.000,-221747
3.7781219482421875,523313483,3.305,-9.098,-0.691,0.000,0.000,0.000,-221507
3.7813689708709717,523316704,3.305,-9.098,-0.691,0.000,0.000,0.000,-221656
3.7855751514434814,523320925,3.305,-9.098,-0.691,0.000,0.000,0.000,-222673
3.8002641201019287,523327146,3.305,-9.098,-0.691,0.000,0.000,0.000,-222070
3.8003768920898438,523332367,3.344,-9.094,-0.691,0.000,0.000,0.000,-222770
3.800489902496338,523335588,3.344,-9.094,-0.691,0.000,0.000,0.000,-221830
3.805460214614868,523340809,3.344,-9.094,-0.691,0.000,0.000,0.000,-222017
3.8106789588928223,523346030,3.344,-9.094,-0.691,0.000,0.000,0.000,-221918
3.814934015274048,523350251,3.344,-9.094,-0.691,0.000,0.000,0.000,-222084
3.81911301612854,523354472,3.344,-9.094,-0.691,0.000,0.000,0.000,-221827
3.82332706451416,523358693,3.344,-9.094,-0.691,0.000,0.000,0.000,-221466
3.8284800052642822,523363914,3.344,-9.133,-0.730,0.000,0.000,0.000,-221978
3.8334670066833496,523367135,3.344,-9.133,-0.730,0.000,0.000,0.000,-221870
3.8370089530944824,523372355,3.344,-9.133,-0.730,0.000,0.000,0.000,-222327
3.8422250747680664,523377576,3.344,-9.133,-0.730,0.000,0.000,0.000,-221990
3.8464560508728027,523381796,3.344,-9.133,-0.730,0.000,0.000,0.000,-221845
3.851634979248047,523387016,3.344,-9.133,-0.730,0.000,0.000,0.000,-221388
3.856882095336914,523392237,3.344,-9.133,-0.730,0.000,0.000,0.000,-222627
3.866804838180542,523397457,3.344,-9.098,-0.617,0.000,0.000,0.000,-221174
3.8669321537017822,523399678,3.344,-9.098,-0.617,0.000,0.000,0.000,-222182
3.869508981704712,523404899,3.344,-9.098,-0.617,0.000,0.000,0.000,-221849
3.8737809658050537,523409120,3.344,-9.098,-0.617,0.000,0.000,0.000,-222275
3.8780288696289062,523413341,3.344,-9.098,-0.617,0.000,0.000,0.000,-221559
3.8822171688079834,523417562,3.344,-9.098,-0.617,0.000,0.000,0.000,-221757
3.8864428997039795,523421783,3.305,-9.137,-0.691,0.000,0.000,0.000,-222133
3.8896520137786865,523425004,3.305,-9.137,-0.691,0.000,0.000,0.000,-222794
3.900132894515991,523431225,3.305,-9.137,-0.691,0.000,0.000,0.000,-222069
3.9002552032470703,523435446,3.305,-9.137,-0.691,0.000,0.000,0.000,-222875
3.9043290615081787,523439666,3.305,-9.137,-0.691,0.000,0.000,0.000,-221924
3.909541130065918,523444887,3.305,-9.137,-0.691,0.000,0.000,0.000,-221648
3.9137818813323975,523449108,3.305,-9.137,-0.691,0.000,0.000,0.000,-222156
3.9180030822753906,523453329,3.305,-9.094,-0.770,0.000,0.000,0.000,-222998
3.9211509227752686,523456549,3.305,-9.094,-0.770,0.000,0.000,0.000,-221832
3.926344156265259,523461770,3.305,-9.094,-0.770,0.000,0.000,0.000,-222638
3.9334628582000732,523465990,3.305,-9.094,-0.770,0.000,0.000,0.000,-222686
3.934964895248413,523470211,3.305,-9.094,-0.770,0.000,0.000,0.000,-222049
3.939055919647217,523474432,3.305,-9.094,-0.770,0.000,0.000,0.000,-223327
3.943432092666626,523478653,3.305,-9.094,-0.770,0.000,0.000,0.000,-221249
3.9484848976135254,523483873,3.305,-9.094,-0.617,0.000,0.000,0.000,-222131
3.9508330821990967,523486094,3.305,-9.094,-0.617,0.000,0.000,0.000,-221530
3.954916000366211,523490315,3.305,-9.094,-0.617,0.000,0.000,0.000,-222411
3.9591870307922363,523494535,3.305,-9.094,-0.617,0.000,0.000,0.000,-221450
3.9668378829956055,523497756,3.305,-9.094,-0.617,0.000,0.000,0.000,-221889
3.9669101238250732,523501977,3.305,-9.094,-0.617,0.000,0.000,0.000,-221600
3.9708728790283203,523506198,3.383,-9.133,-0.730,0.000,0.000,0.000,-221931
3.973069906234741,523508419,3.383,-9.133,-0.730,0.000,0.000,0.000,-222422
3.977294921875,523512640,3.383,-9.133,-0.730,0.000,0.000,0.000,-222472
3.981502056121826,523516861,3.383,-9.133,-0.730,0.000,0.000,0.000,-222505
3.985719919204712,523521082,3.383,-9.133,-0.730,0.000,0.000,0.000,-222133
3.9909658432006836,523526303,3.383,-9.133,-0.730,0.000,0.000,0.000,-221969
4.00029993057251,523530525,3.383,-9.133,-0.730,0.000,0.000,0.000,-221060
4.000372886657715,523535746,3.344,-9.094,-0.691,0.000,0.000,0.000,-222416
4.003571033477783,523538967,3.344,-9.094,-0.691,0.000,0.000,0.000,-222570
4.0098559856414795,523545188,3.344,-9.094,-0.691,0.000,0.000,0.000,-221737
4.014051914215088,523549409,3.344,-9.094,-0.691,0.000,0.000,0.000,-222301
4.017283916473389,523552630,3.344,-9.094,-0.691,0.000,0.000,0.000,-222835
4.021497964859009,523556851,3.344,-9.094,-0.691,0.000,0.000,0.000,-222865
4.02568793296814,523561071,3.344,-9.094,-0.691,0.000,0.000,0.000,-221543
4.033707857131958,523565291,3.305,-9.137,-0.691,0.000,0.000,0.000,-221880
4.03383207321167,523567512,3.305,-9.137,-0.691,0.000,0.000,0.000,-221699
4.0393359661102295,523574733,3.305,-9.137,-0.691,0.000,0.000,0.000,-222367
4.0437071323394775,523578954,3.305,-9.137,-0.691,0.000,0.000,0.000,-222260
4.0477988719940186,523583175,3.305,-9.137,-0.691,0.000,0.000,0.000,-221612
4.052074909210205,523587396,3.305,-9.137,-0.691,0.000,0.000,0.000,-221444
4.066836833953857,523591617,3.305,-9.137,-0.691,0.000,0.000,0.000,-221925
4.066996097564697,523596838,3.344,-9.133,-0.730,0.000,0.000,0.000,-222281
4.067106008529663,523600059,3.344,-9.133,-0.730,0.000,0.000,0.000,-222389
4.070947885513306,523606280,3.344,-9.133,-0.730,0.000,0.000,0.000,-222266
4.075156211853027,523610501,3.344,-9.133,-0.730,0.000,0.000,0.000,-222228
4.079390048980713,523614722,3.344,-9.133,-0.730,0.000,0.000,0.000,-221964
4.083575010299683,523618943,3.344,-9.133,-0.730,0.000,0.000,0.000,-222293
4.0887370109558105,523624164,3.344,-9.133,-0.730,0.000,0.000,0.000,-222162
4.100107908248901,523628385,3.344,-9.137,-0.617,0.000,0.000,0.000,-221752
4.100221157073975,523631606,3.344,-9.137,-0.617,0.000,0.000,0.000,-222340
4.101617097854614,523636827,3.344,-9.137,-0.617,0.000,0.000,0.000,-222309
4.105705976486206,523641048,3.344,-9.133,-0.730,0.000,0.000,0.000,-223591
4.108905792236328,523644269,3.344,-9.133,-0.730,0.000,0.000,0.000,-221718
4.114129066467285,523649490,3.344,-9.133,-0.730,0.000,0.000,0.000,-221601
4.118356227874756,523653711,3.344,-9.133,-0.730,0.000,0.000,0.000,-222048
4.1215760707855225,523656932,3.344,-9.133,-0.730,0.000,0.000,0.000,-221910
4.1334428787231445,523661153,3.344,-9.133,-0.730,0.000,0.000,0.000,-222352
4.133556127548218,523665374,3.344,-9.133,-0.730,0.000,0.000,0.000,-221933
4.134278059005737,523669595,3.344,-9.094,-0.691,0.000,0.000,0.000,-221535
4.137454032897949,523672816,3.344,-9.094,-0.691,0.000,0.000,0.000,-222515
4.1426990032196045,523678037,3.344,-9.094,-0.691,0.000,0.000,0.000,-222075
4.1468892097473145,523682257,3.344,-9.094,-0.691,0.000,0.000,0.000,-221899
4.152129888534546,523687477,3.344,-9.094,-0.691,0.000,0.000,0.000,-222166
4.156361103057861,523691698,3.344,-9.094,-0.691,0.000,0.000,0.000,-222949
4.166759014129639,523696919,3.344,-9.094,-0.691,0.000,0.000,0.000,-221516
4.166830062866211,523701140,3.344,-9.094,-0.691,0.000,0.000,0.000,-222291
4.168998956680298,523704361,3.344,-9.094,-0.691,0.000,0.000,0.000,-222041
4.175251007080078,523710584,3.344,-9.094,-0.691,0.000,0.000,0.000,-222210
4.1793670654296875,523714805,3.344,-9.094,-0.691,0.000,0.000,0.000,-221370
4.1828179359436035,523718026,3.344,-9.094,-0.691,0.000,0.000,0.000,-222663
4.18680477142334,523722246,3.344,-9.094,-0.691,0.000,0.000,0.000,-222412
4.200100898742676,523727466,3.344,-9.094,-0.691,0.000,0.000,0.000,-222130
4.200173854827881,523730687,3.383,-9.098,-0.656,0.000,0.000,0.000,-222291
4.2004241943359375,523735908,3.383,-9.098,-0.656,0.000,0.000,0.000,-222636
4.204681873321533,523740129,3.383,-9.098,-0.656,0.000,0.000,0.000,-222226
4.209989070892334,523745349,3.383,-9.098,-0.656,0.000,0.000,0.000,-221483
4.214187860488892,523749570,3.383,-9.098,-0.656,0.000,0.000,0.000,-222649
4.218438148498535,523753790,3.383,-9.098,-0.656,0.000,0.000,0.000,-221992
4.222588062286377,523758011,3.344,-9.094,-0.730,0.000,0.000,0.000,-222434
4.225878000259399,523761232,3.344,-9.094,-0.730,0.000,0.000,0.000,-222233
4.233486890792847,523767453,3.344,-9.094,-0.730,0.000,0.000,0.000,-221942
4.23625111579895,523771673,3.344,-9.094,-0.730,0.000,0.000,0.000,-222197
4.240639925003052,523775894,3.344,-9.094,-0.730,0.000,0.000,0.000,-223326
4.2447710037231445,523780115,3.344,-9.094,-0.730,0.000,0.000,0.000,-221385
4.249972820281982,523785335,3.344,-9.094,-0.730,0.000,0.000,0.000,-221655
4.254120111465454,523789556,3.344,-9.137,-0.770,0.000,0.000,0.000,-222605
4.257410049438477,523792761,3.344,-9.137,-0.770,0.000,0.000,0.000,-222605
4.266803026199341,523797981,3.344,-9.137,-0.770,0.000,0.000,0.000,-221708
4.266875982284546,523802202,3.344,-9.137,-0.770,0.000,0.000,0.000,-222362
4.272069931030273,523807424,3.344,-9.137,-0.770,0.000,0.000,0.000,-222656
4.2762861251831055,523811644,3.344,-9.137,-0.770,0.000,0.000,0.000,-222840
4.28045392036438,523815864,3.344,-9.137,-0.770,0.000,0.000,0.000,-221759
4.284718990325928,523820084,3.422,-9.094,-0.656,0.000,0.000,0.000,-222561
4.287940979003906,523823305,3.422,-9.094,-0.656,0.000,0.000,0.000,-222818
4.300396919250488,523830525,3.422,-9.094,-0.656,0.000,0.000,0.000,-221841
4.300511121749878,523834746,3.422,-9.094,-0.656,0.000,0.000,0.000,-222568
4.30260705947876,523837967,3.422,-9.094,-0.656,0.000,0.000,0.000,-221990
4.3068578243255615,523842188,3.422,-9.094,-0.656,0.000,0.000,0.000,-222771
4.3110480308532715,523846409,3.422,-9.094,-0.656,0.000,0.000,0.000,-222162
4.315212965011597,523850630,3.305,-9.137,-0.730,0.000,0.000,0.000,-221591
4.317487955093384,523852850,3.305,-9.137,-0.730,0.000,0.000,0.000,-221731
4.322726011276245,523858071,3.305,-9.137,-0.730,0.000,0.000,0.000,-222145
4.326849937438965,523862292,3.305,-9.137,-0.730,0.000,0.000,0.000,-221060
4.333750009536743,523866512,3.305,-9.137,-0.730,0.000,0.000,0.000,-222340
4.335369825363159,523870733,3.305,-9.137,-0.730,0.000,0.000,0.000,-222141
4.3406360149383545,523875954,3.305,-9.137,-0.730,0.000,0.000,0.000,-222575
4.344766139984131,523880175,3.344,-9.133,-0.691,0.000,0.000,0.000,-221813
4.348042964935303,523883396,3.344,-9.133,-0.691,0.000,0.000,0.000,-221888
4.354248046875,523889617,3.344,-9.133,-0.691,0.000,0.000,0.000,-223296
4.358433961868286,523893837,3.344,-9.133,-0.691,0.000,0.000,0.000,-222085
4.366796016693115,523897058,3.344,-9.133,-0.691,0.000,0.000,0.000,-221944
4.3669211864471436,523901279,3.344,-9.133,-0.691,0.000,0.000,0.000,-222411
4.37008810043335,523905499,3.344,-9.133,-0.691,0.000,0.000,0.000,-222850
4.374369859695435,523909720,3.383,-9.137,-0.656,0.000,0.000,0.000,-222291
4.376585006713867,523911941,3.383,-9.137,-0.656,0.000,0.000,0.000,-222262
4.381816864013672,523917161,3.383,-9.137,-0.656,0.000,0.000,0.000,-222052
4.386029958724976,523921381,3.383,-9.137,-0.656,0.000,0.000,0.000,-222431
4.390260219573975,523925602,3.383,-9.137,-0.656,0.000,0.000,0.000,-222686
4.395426988601685,523930823,3.383,-9.137,-0.656,0.000,0.000,0.000,-221651
4.400123119354248,523935044,3.383,-9.137,-0.656,0.000,0.000,0.000,-222834
4.403908014297485,523939264,3.383,-9.094,-0.730,0.000,0.000,0.000,-222972
4.407150030136108,523942485,3.383,-9.094,-0.730,0.000,0.000,0.000,-221998
4.413372039794922,523948706,3.383,-9.094,-0.730,0.000,0.000,0.000,-221436
4.41759991645813,523952927,3.383,-9.094,-0.730,0.000,0.000,0.000,-222322
4.421791076660156,523957147,3.383,-9.094,-0.730,0.000,0.000,0.000,-221756
4.425014972686768,523960368,3.383,-9.137,-0.656,0.000,0.000,0.000,-221648
4.430198907852173,523965589,3.383,-9.137,-0.656,0.000,0.000,0.000,-221759
4.4344329833984375,523969812,3.383,-9.137,-0.656,0.000,0.000,0.000,-221718
4.439732074737549,523975033,3.383,-9.137,-0.656,0.000,0.000,0.000,-222362
4.44394588470459,523979254,3.383,-9.137,-0.656,0.000,0.000,0.000,-222745
4.450141191482544,523985474,3.383,-9.137,-0.656,0.000,0.000,0.000,-222997
4.454377174377441,523989695,3.305,-9.098,-0.691,0.000,0.000,0.000,-222217
4.457557916641235,523992916,3.305,-9.098,-0.691,0.000,0.000,0.000,-221869
4.466820001602173,523998136,3.305,-9.098,-0.691,0.000,0.000,0.000,-221649
4.466958045959473,524002357,3.305,-9.098,-0.691,0.000,0.000,0.000,-221998
4.471197128295898,524006577,3.305,-9.098,-0.691,0.000,0.000,0.000,-222599
4.4754798412323,524010798,3.305,-9.098,-0.691,0.000,0.000,0.000,-223130
4.4806969165802,524016019,3.305,-9.098,-0.691,0.000,0.000,0.000,-221663
4.484941005706787,524020239,3.344,-9.059,-0.730,0.000,0.000,0.000,-222403
4.488090991973877,524023459,3.344,-9.059,-0.730,0.000,0.000,0.000,-222349
4.493310213088989,524028680,3.344,-9.059,-0.730,0.000,0.000,0.000,-221745
4.500340938568115,524032901,3.344,-9.059,-0.730,0.000,0.000,0.000,-221930
4.501769065856934,524037122,3.344,-9.059,-0.730,0.000,0.000,0.000,-222080
4.506011009216309,524041342,3.344,-9.059,-0.730,0.000,0.000,0.000,-222092
4.510231971740723,524045562,3.344,-9.059,-0.730,0.000,0.000,0.000,-222313
4.514447927474976,524049784,3.383,-9.137,-0.617,0.000,0.000,0.000,-222753
4.516674995422363,524052004,3.383,-9.137,-0.617,0.000,0.000,0.000,-222432
4.520895957946777,524056225,3.383,-9.137,-0.617,0.000,0.000,0.000,-222666
4.525086164474487,524060445,3.383,-9.137,-0.617,0.000,0.000,0.000,-221574
4.533658981323242,524064665,3.383,-9.137,-0.617,0.000,0.000,0.000,-222475
4.533799171447754,524068886,3.383,-9.137,-0.617,0.000,0.000,0.000,-222069
4.5377960205078125,524073106,3.383,-9.137,-0.617,0.000,0.000,0.000,-223029
4.542999982833862,524078327,3.344,-9.094,-0.730,0.000,0.000,0.000,-222355
4.546207904815674,524081548,3.344,-9.094,-0.730,0.000,0.000,0.000,-221546
4.55339789390564,524088769,3.344,-9.094,-0.730,0.000,0.000,0.000,-222076
4.5576491355896,524092990,3.344,-9.094,-0.730,0.000,0.000,0.000,-222355
4.561952829360962,524097211,3.344,-9.094,-0.730,0.000,0.000,0.000,-221563
4.566987991333008,524101432,3.344,-9.094,-0.730,0.000,0.000,0.000,-222468
4.570282936096191,524105653,3.383,-9.137,-0.656,0.000,0.000,0.000,-222089
4.572535991668701,524107874,3.383,-9.137,-0.656,0.000,0.000,0.000,-222760
4.577777147293091,524113095,3.383,-9.137,-0.656,0.000,0.000,0.000,-222421
4.581993818283081,524117315,3.383,-9.137,-0.656,0.000,0.000,0.000,-222982
4.587203025817871,524122536,3.383,-9.137,-0.656,0.000,0.000,0.000,-222151
4.5924530029296875,524127757,3.383,-9.137,-0.656,0.000,0.000,0.000,-221668
4.600169897079468,524131978,3.383,-9.137,-0.656,0.000,0.000,0.000,-222207
4.600383996963501,524135199,3.383,-9.133,-0.730,0.000,0.000,0.000,-222446
4.603107929229736,524138420,3.383,-9.133,-0.730,0.000,0.000,0.000,-221757
4.609310150146484,524144641,3.383,-9.133,-0.730,0.000,0.000,0.000,-222593
4.614546060562134,524149862,3.383,-9.133,-0.730,0.000,0.000,0.000,-221655
4.618774890899658,524154082,3.383,-9.133,-0.730,0.000,0.000,0.000,-221735
4.622964859008789,524158304,3.383,-9.133,-0.730,0.000,0.000,0.000,-222421
4.627213954925537,524162524,3.383,-9.133,-0.730,0.000,0.000,0.000,-220921
4.63139796257019,524166745,3.383,-9.059,-0.730,0.000,0.000,0.000,-221849
4.634624004364014,524169966,3.383,-9.059,-0.730,0.000,0.000,0.000,-222234
4.639829874038696,524175187,3.383,-9.059,-0.730,0.000,0.000,0.000,-221991
4.644084930419922,524179408,3.383,-9.059,-0.730,0.000,0.000,0.000,-222460
4.647410154342651,524182629,3.383,-9.059,-0.730,0.000,0.000,0.000,-222550
4.65259313583374,524187850,3.383,-9.059,-0.730,0.000,0.000,0.000,-222991
4.656767845153809,524192070,3.305,-9.137,-0.691,0.000,0.000,0.000,-222620
4.659958839416504,524195291,3.305,-9.137,-0.691,0.000,0.000,0.000,-222076
4.666858911514282,524200513,3.305,-9.137,-0.691,0.000,0.000,0.000,-221688
4.670364141464233,524205733,3.305,-9.137,-0.691,0.000,0.000,0.000,-222320
4.674655199050903,524209954,3.305,-9.137,-0.691,0.000,0.000,0.000,-222394
4.679869174957275,524215174,3.305,-9.137,-0.691,0.000,0.000,0.000,-222062
4.685091018676758,524220394,3.305,-9.137,-0.691,0.000,0.000,0.000,-222447
4.690294981002808,524225615,3.344,-9.137,-0.770,0.000,0.000,0.000,-221829
4.692517995834351,524227836,3.344,-9.137,-0.770,0.000,0.000,0.000,-222262
4.700196027755737,524233056,3.344,-9.137,-0.770,0.000,0.000,0.000,-221987
4.701970100402832,524237277,3.344,-9.137,-0.770,0.000,0.000,0.000,-222145
4.706195116043091,524241498,3.344,-9.137,-0.770,0.000,0.000,0.000,-222390
4.7104339599609375,524245719,3.344,-9.137,-0.770,0.000,0.000,0.000,-221830
4.714668035507202,524249940,3.344,-9.137,-0.770,0.000,0.000,0.000,-222358
4.717886209487915,524253161,3.344,-9.098,-0.656,0.000,0.000,0.000,-222759
4.720099925994873,524255382,3.344,-9.098,-0.656,0.000,0.000,0.000,-222442
4.724313974380493,524259603,3.344,-9.098,-0.656,0.000,0.000,0.000,-222280
4.728549957275391,524263824,3.344,-9.098,-0.656,0.000,0.000,0.000,-222383
4.733519077301025,524268044,3.344,-9.098,-0.656,0.000,0.000,0.000,-221655
4.737967014312744,524273265,3.344,-9.098,-0.770,0.000,0.000,0.000,-222805
4.741215229034424,524276486,3.344,-9.098,-0.770,0.000,0.000,0.000,-222392
4.746438026428223,524281707,3.344,-9.098,-0.770,0.000,0.000,0.000,-221991
4.751795053482056,524286928,3.344,-9.098,-0.770,0.000,0.000,0.000,-222608
4.755940914154053,524291149,3.344,-9.098,-0.770,0.000,0.000,0.000,-222076
4.760102987289429,524295370,3.344,-9.098,-0.770,0.000,0.000,0.000,-222448
4.763275861740112,524298591,3.344,-9.098,-0.770,0.000,0.000,0.000,-222097
4.767657041549683,524302812,3.344,-9.133,-0.691,0.000,0.000,0.000,-222323
4.7707109451293945,524306032,3.344,-9.133,-0.691,0.000,0.000,0.000,-222378
4.7768919467926025,524312238,3.344,-9.133,-0.691,0.000,0.000,0.000,-222378
4.781184911727905,524316458,3.344,-9.133,-0.691,0.000,0.000,0.000,-222055
4.784433126449585,524319679,3.344,-9.133,-0.691,0.000,0.000,0.000,-222550
4.789729833602905,524324900,3.344,-9.133,-0.691,0.000,0.000,0.000,-222674
4.794228792190552,524329121,3.344,-9.133,-0.691,0.000,0.000,0.000,-222097
4.801322937011719,524336341,3.383,-9.137,-0.617,0.000,0.000,0.000,-222322
4.804953098297119,524339561,3.383,-9.137,-0.617,0.000,0.000,0.000,-222098
4.810480117797852,524345781,3.383,-9.137,-0.617,0.000,0.000,0.000,-222035
4.8148839473724365,524350002,3.383,-9.137,-0.617,0.000,0.000,0.000,-222690
4.8178870677948,524353223,3.383,-9.137,-0.617,0.000,0.000,0.000,-222540
4.822207927703857,524357445,3.383,-9.137,-0.617,0.000,0.000,0.000,-222293
4.826415061950684,524361666,3.383,-9.137,-0.617,0.000,0.000,0.000,-221895
4.830748081207275,524365887,3.344,-9.059,-0.730,0.000,0.000,0.000,-222839
4.833098888397217,524368108,3.344,-9.059,-0.730,0.000,0.000,0.000,-222603
4.838909149169922,524373329,3.344,-9.059,-0.730,0.000,0.000,0.000,-222360
4.842253923416138,524377550,3.344,-9.059,-0.730,0.000,0.000,0.000,-222320
4.845477104187012,524380771,3.344,-9.059,-0.730,0.000,0.000,0.000,-222068
4.850708961486816,524385992,3.344,-9.059,-0.730,0.000,0.000,0.000,-221911
4.854994058609009,524390213,3.344,-9.059,-0.730,0.000,0.000,0.000,-221881
4.858167886734009,524393433,3.383,-9.094,-0.691,0.000,0.000,0.000,-222135
4.863375902175903,524398654,3.383,-9.094,-0.691,0.000,0.000,0.000,-221850
4.868098020553589,524402874,3.383,-9.094,-0.691,0.000,0.000,0.000,-222817
4.8728179931640625,524408094,3.383,-9.094,-0.691,0.000,0.000,0.000,-222421
4.877058982849121,524412315,3.383,-9.094,-0.691,0.000,0.000,0.000,-222350
4.88141393661499,524416535,3.305,-9.137,-0.691,0.000,0.000,0.000,-221904
4.884400129318237,524419756,3.305,-9.137,-0.691,0.000,0.000,0.000,-222741
4.890868902206421,524425977,3.305,-9.137,-0.691,0.000,0.000,0.000,-222455
4.894948959350586,524430198,3.305,-9.137,-0.691,0.000,0.000,0.000,-222092
4.899240016937256,524434418,3.305,-9.137,-0.691,0.000,0.000,0.000,-222333
4.903892993927002,524438639,3.305,-9.137,-0.691,0.000,0.000,0.000,-222289
4.908591032028198,524443860,3.305,-9.137,-0.691,0.000,0.000,0.000,-222496
4.9139649868011475,524449080,3.344,-9.094,-0.730,0.000,0.000,0.000,-222339
4.916985034942627,524452301,3.344,-9.094,-0.730,0.000,0.000,0.000,-222382
4.922321081161499,524457521,3.344,-9.094,-0.730,0.000,0.000,0.000,-221561
4.926569938659668,524461742,3.344,-9.094,-0.730,0.000,0.000,0.000,-222394
4.931935787200928,524466963,3.344,-9.094,-0.730,0.000,0.000,0.000,-222199
4.9367640018463135,524471183,3.344,-9.094,-0.730,0.000,0.000,0.000,-222611
4.940124988555908,524475404,3.305,-9.137,-0.691,0.000,0.000,0.000,-222347
4.943360805511475,524478625,3.305,-9.137,-0.691,0.000,0.000,0.000,-222136
4.948631048202515,524483846,3.305,-9.137,-0.691,0.000,0.000,0.000,-221671
4.952749967575073,524488067,3.305,-9.137,-0.691,0.000,0.000,0.000,-222475
4.957950115203857,524493288,3.305,-9.137,-0.691,0.000,0.000,0.000,-222333
4.962224960327148,524497511,3.305,-9.137,-0.691,0.000,0.000,0.000,-222706
4.9664130210876465,524501732,3.305,-9.137,-0.691,0.000,0.000,0.000,-222240
4.9716269969940186,524506952,3.344,-9.137,-0.809,0.000,0.000,0.000,-222455
4.974992036819458,524510172,3.344,-9.137,-0.809,0.000,0.000,0.000,-222083
4.980175018310547,524515393,3.344,-9.137,-0.809,0.000,0.000,0.000,-222650
4.984534025192261,524519614,3.344,-9.137,-0.809,0.000,0.000,0.000,-221876
4.987643003463745,524522835,3.344,-9.137,-0.809,0.000,0.000,0.000,-222127
4.992739915847778,524528056,3.344,-9.137,-0.809,0.000,0.000,0.000,-222184
4.997161149978638,524532276,3.344,-9.137,-0.809,0.000,0.000,0.000,-222078
5.002852916717529,524536497,3.305,-9.098,-0.691,0.000,0.000,0.000,-222153
5.004435062408447,524539717,3.305,-9.098,-0.691,0.000,0.000,0.000,-223147
5.0107197761535645,524545938,3.305,-9.098,-0.691,0.000,0.000,0.000,-221703
5.015002012252808,524550159,3.305,-9.098,-0.691,0.000,0.000,0.000,-222526
5.01923394203186,524554380,3.305,-9.098,-0.691,0.000,0.000,0.000,-222720
5.023403882980347,524558601,3.305,-9.098,-0.691,0.000,0.000,0.000,-222636
5.027756929397583,524562822,3.305,-9.098,-0.691,0.000,0.000,0.000,-222255
5.032006025314331,524567043,3.344,-9.098,-0.770,0.000,0.000,0.000,-222072
5.033998012542725,524569264,3.344,-9.098,-0.770,0.000,0.000,0.000,-222020
5.039236068725586,524574485,3.344,-9.098,-0.770,0.000,0.000,0.000,-222046
5.0423688888549805,524577706,3.344,-9.098,-0.770,0.000,0.000,0.000,-222548
5.046673059463501,524581927,3.344,-9.098,-0.770,0.000,0.000,0.000,-221963
5.052874803543091,524588148,3.344,-9.098,-0.770,0.000,0.000,0.000,-222166
5.05810809135437,524593368,3.344,-9.098,-0.770,0.000,0.000,0.000,-222878
5.06227707862854,524597589,3.344,-9.133,-0.691,0.000,0.000,0.000,-221905
5.065493822097778,524600809,3.344,-9.133,-0.691,0.000,0.000,0.000,-222843
5.071741104125977,524607030,3.344,-9.133,-0.691,0.000,0.000,0.000,-222662
5.075973033905029,524611250,3.344,-9.133,-0.691,0.000,0.000,0.000,-222385
5.080180883407593,524615471,3.344,-9.133,-0.691,0.000,0.000,0.000,-221158
5.085364103317261,524620692,3.344,-9.133,-0.691,0.000,0.000,0.000,-222047
5.091671943664551,524626913,3.344,-9.133,-0.691,0.000,0.000,0.000,-221955
5.095831871032715,524631134,3.344,-9.137,-0.656,0.000,0.000,0.000,-221751
5.099048137664795,524634354,3.344,-9.137,-0.656,0.000,0.000,0.000,-222678
5.10429310798645,524639575,3.344,-9.137,-0.656,0.000,0.000,0.000,-223283
5.108536005020142,524643796,3.344,-9.137,-0.656,0.000,0.000,0.000,-221918
5.113764047622681,524649017,3.344,-9.137,-0.656,0.000,0.000,0.000,-221497
5.117955923080444,524653237,3.344,-9.137,-0.656,0.000,0.000,0.000,-222269
5.123583793640137,524658458,3.344,-9.137,-0.656,0.000,0.000,0.000,-222760
5.127345085144043,524662679,3.305,-9.055,-0.730,0.000,0.000,0.000,-221862
5.130591869354248,524665900,3.305,-9.055,-0.730,0.000,0.000,0.000,-221552
5.135951042175293,524671120,3.305,-9.055,-0.730,0.000,0.000,0.000,-222785
5.14109206199646,524676341,3.305,-9.055,-0.730,0.000,0.000,0.000,-221315
5.14526891708374,524680547,3.305,-9.055,-0.730,0.000,0.000,0.000,-221315
5.150470018386841,524685767,3.305,-9.055,-0.730,0.000,0.000,0.000,-222108
5.154659032821655,524689988,3.305,-9.055,-0.730,0.000,0.000,0.000,-223464
5.1590070724487305,524694209,3.344,-9.098,-0.617,0.000,0.000,0.000,-222902
5.162161111831665,524697429,3.344,-9.098,-0.617,0.000,0.000,0.000,-221632
5.1683669090271,524703650,3.344,-9.098,-0.617,0.000,0.000,0.000,-222430
5.172590017318726,524707870,3.344,-9.098,-0.617,0.000,0.000,0.000,-222375
5.175823926925659,524711090,3.344,-9.098,-0.617,0.000,0.000,0.000,-222009
5.180253982543945,524715311,3.344,-9.098,-0.617,0.000,0.000,0.000,-222688
5.184435129165649,524719532,3.344,-9.098,-0.617,0.000,0.000,0.000,-222101
5.188726902008057,524723753,3.344,-9.094,-0.691,0.000,0.000,0.000,-222164
5.191910982131958,524726974,3.344,-9.094,-0.691,0.000,0.000,0.000,-221877
5.198235988616943,524733195,3.344,-9.094,-0.691,0.000,0.000,0.000,-221889
5.202523946762085,524737416,3.344,-9.094,-0.691,0.000,0.000,0.000,-222105
5.2069878578186035,524741637,3.344,-9.094,-0.691,0.000,0.000,0.000,-222910
5.212599992752075,524747858,3.344,-9.094,-0.691,0.000,0.000,0.000,-221912
5.217825889587402,524753079,3.344,-9.094,-0.691,0.000,0.000,0.000,-223216
5.2220470905303955,524757300,3.305,-9.098,-0.730,0.000,0.000,0.000,-221793
5.224286079406738,524759521,3.305,-9.098,-0.730,0.000,0.000,0.000,-222061
5.22954797744751,524764741,3.305,-9.098,-0.730,0.000,0.000,0.000,-222219
5.233749866485596,524768961,3.305,-9.098,-0.730,0.000,0.000,0.000,-222005
5.238147020339966,524773181,3.305,-9.098,-0.730,0.000,0.000,0.000,-222171
5.243273973464966,524778402,3.305,-9.098,-0.730,0.000,0.000,0.000,-222256
5.247362852096558,524782623,3.305,-9.098,-0.730,0.000,0.000,0.000,-221631
5.251582860946655,524786844,3.344,-9.059,-0.691,0.000,0.000,0.000,-221866
5.254813194274902,524790065,3.344,-9.059,-0.691,0.000,0.000,0.000,-223004
5.260983943939209,524796285,3.344,-9.059,-0.691,0.000,0.000,0.000,-221916
5.265221118927002,524800507,3.344,-9.059,-0.691,0.000,0.000,0.000,-222312
5.2705299854278564,524805728,3.344,-9.059,-0.691,0.000,0.000,0.000,-222040
5.274698972702026,524809948,3.344,-9.059,-0.691,0.000,0.000,0.000,-222532
5.278972148895264,524814168,3.344,-9.059,-0.691,0.000,0.000,0.000,-220802
5.283143043518066,524818388,3.383,-9.137,-0.617,0.000,0.000,0.000,-222665
5.286330938339233,524821609,3.383,-9.137,-0.617,0.000,0.000,0.000,-222928
5.292529106140137,524827829,3.383,-9.137,-0.617,0.000,0.000,0.000,-221780
5.296799182891846,524832050,3.383,-9.137,-0.617,0.000,0.000,0.000,-222226
5.303879976272583,524838271,3.383,-9.137,-0.617,0.000,0.000,0.000,-222389
5.308221101760864,524843492,3.383,-9.137,-0.617,0.000,0.000,0.000,-221581
5.312484979629517,524847713,3.383,-9.137,-0.617,0.000,0.000,0.000,-221791
5.3158040046691895,524850933,3.383,-9.133,-0.730,0.000,0.000,0.000,-222517
5.318007946014404,524853153,3.383,-9.133,-0.730,0.000,0.000,0.000,-222519
5.323387145996094,524858373,3.383,-9.133,-0.730,0.000,0.000,0.000,-222719
5.327548980712891,524862594,3.344,-9.098,-0.656,0.000,0.000,0.000,-222379
5.333855152130127,524868815,3.344,-9.098,-0.656,0.000,0.000,0.000,-222722
5.337924957275391,524873036,3.344,-9.098,-0.656,0.000,0.000,0.000,-223228
5.341920852661133,524877256,3.344,-9.098,-0.656,0.000,0.000,0.000,-222770
5.346190929412842,524881477,3.344,-9.098,-0.656,0.000,0.000,0.000,-221951
5.351433992385864,524886697,3.344,-9.098,-0.656,0.000,0.000,0.000,-222081
5.3556740283966064,524890918,3.344,-9.137,-0.770,0.000,0.000,0.000,-222533
5.3589489459991455,524894139,3.344,-9.137,-0.770,0.000,0.000,0.000,-222087
5.365314960479736,524900359,3.344,-9.137,-0.770,0.000,0.000,0.000,-222428
5.369643926620483,524904580,3.344,-9.137,-0.770,0.000,0.000,0.000,-223222
5.373900890350342,524908801,3.344,-9.137,-0.770,0.000,0.000,0.000,-222816
5.377753973007202,524913022,3.344,-9.137,-0.770,0.000,0.000,0.000,-222086
5.380980014801025,524916242,3.344,-9.137,-0.770,0.000,0.000,0.000,-222412
5.385293006896973,524920463,3.383,-9.137,-0.770,0.000,0.000,0.000,-222775
5.388498067855835,524923684,3.383,-9.137,-0.770,0.000,0.000,0.000,-223393
5.3948588371276855,524929904,3.383,-9.137,-0.770,0.000,0.000,0.000,-222214
5.3990960121154785,524934125,3.383,-9.137,-0.770,0.000,0.000,0.000,-222048
5.4032580852508545,524938346,3.383,-9.137,-0.770,0.000,0.000,0.000,-222416
5.408310890197754,524943566,3.383,-9.137,-0.770,0.000,0.000,0.000,-222696
5.412497043609619,524947787,3.383,-9.137,-0.770,0.000,0.000,0.000,-222168
5.416809797286987,524952008,3.344,-9.137,-0.770,0.000,0.000,0.000,-222685
5.419958829879761,524955229,3.344,-9.137,-0.770,0.000,0.000,0.000,-222628
5.426276922225952,524961449,3.344,-9.137,-0.770,0.000,0.000,0.000,-221238
5.431621074676514,524966670,3.344,-9.137,-0.770,0.000,0.000,0.000,-222090
5.435628890991211,524970890,3.344,-9.137,-0.770,0.000,0.000,0.000,-222057
5.441279888153076,524976111,3.344,-9.137,-0.770,0.000,0.000,0.000,-222059
5.445044040679932,524980331,3.344,-9.094,-0.691,0.000,0.000,0.000,-221769
5.447265863418579,524982551,3.344,-9.094,-0.691,0.000,0.000,0.000,-222933
5.452471017837524,524987772,3.344,-9.094,-0.691,0.000,0.000,0.000,-221959
5.4557061195373535,524990993,3.344,-9.094,-0.691,0.000,0.000,0.000,-222112
5.459924936294556,524995214,3.344,-9.094,-0.691,0.000,0.000,0.000,-221606
5.464163064956665,524999434,3.344,-9.094,-0.691,0.000,0.000,0.000,-222237
5.468357086181641,525003655,3.344,-9.094,-0.691,0.000,0.000,0.000,-222030
5.473617076873779,525008876,3.344,-9.094,-0.730,0.000,0.000,0.000,-223190
5.476828098297119,525012097,3.344,-9.094,-0.730,0.000,0.000,0.000,-222472
5.4832611083984375,525018317,3.344,-9.094,-0.730,0.000,0.000,0.000,-222452
5.487326145172119,525022538,3.344,-9.094,-0.730,0.000,0.000,0.000,-222574
5.491479873657227,525026759,3.344,-9.094,-0.730,0.000,0.000,0.000,-222191
5.495733976364136,525030980,3.344,-9.094,-0.730,0.000,0.000,0.000,-222469
5.500936031341553,525036201,3.344,-9.094,-0.730,0.000,0.000,0.000,-222125
5.505124092102051,525040422,3.383,-9.133,-0.691,0.000,0.000,0.000,-222239
5.508373975753784,525043642,3.383,-9.133,-0.691,0.000,0.000,0.000,-222259
5.514620065689087,525049863,3.383,-9.133,-0.691,0.000,0.000,0.000,-222362
5.518868923187256,525054084,3.383,-9.133,-0.691,0.000,0.000,0.000,-222671
5.52307915687561,525058305,3.383,-9.133,-0.691,0.000,0.000,0.000,-223158
5.527444839477539,525062526,3.383,-9.133,-0.691,0.000,0.000,0.000,-222139
5.533251047134399,525067747,3.383,-9.133,-0.691,0.000,0.000,0.000,-222497
5.536738872528076,525071968,3.344,-9.137,-0.656,0.000,0.000,0.000,-222290
5.539939880371094,525075189,3.344,-9.137,-0.656,0.000,0.000,0.000,-222954
5.547075033187866,525081409,3.344,-9.137,-0.656,0.000,0.000,0.000,-221744
5.553351163864136,525088629,3.344,-9.137,-0.656,0.000,0.000,0.000,-222532
5.557626962661743,525092850,3.344,-9.137,-0.656,0.000,0.000,0.000,-222387
5.561927080154419,525097070,3.344,-9.137,-0.656,0.000,0.000,0.000,-222759
5.566256999969482,525101291,3.344,-9.137,-0.656,0.000,0.000,0.000,-222785
5.571249008178711,525106511,3.344,-9.133,-0.691,0.000,0.000,0.000,-222469
5.573377847671509,525108717,3.344,-9.133,-0.691,0.000,0.000,0.000,-222469
5.577741861343384,525112937,3.344,-9.133,-0.691,0.000,0.000,0.000,-221458
5.581947088241577,525117157,3.344,-9.133,-0.691,0.000,0.000,0.000,-223118
5.585155010223389,525120378,3.344,-9.133,-0.691,0.000,0.000,0.000,-222144
5.590558052062988,525125599,3.344,-9.133,-0.691,0.000,0.000,0.000,-222074
5.593824863433838,525128820,3.344,-9.133,-0.691,0.000,0.000,0.000,-222737
5.598047971725464,525133040,3.344,-9.098,-0.770,0.000,0.000,0.000,-221819
5.601229906082153,525136260,3.344,-9.098,-0.770,0.000,0.000,0.000,-222099
5.606182098388672,525141481,3.344,-9.098,-0.770,0.000,0.000,0.000,-222806
5.611427068710327,525146701,3.344,-9.098,-0.770,0.000,0.000,0.000,-221974
5.6156980991363525,525150922,3.344,-9.098,-0.770,0.000,0.000,0.000,-222022
5.620982885360718,525156143,3.344,-9.098,-0.770,0.000,0.000,0.000,-221973
5.625301837921143,525160364,3.344,-9.098,-0.770,0.000,0.000,0.000,-222401
5.630810976028442,525165584,3.344,-9.098,-0.617,0.000,0.000,0.000,-222097
5.632781982421875,525167805,3.344,-9.098,-0.617,0.000,0.000,0.000,-222588
5.6387779712677,525174026,3.344,-9.098,-0.617,0.000,0.000,0.000,-222804
5.6429359912872314,525178246,3.344,-9.098,-0.617,0.000,0.000,0.000,-222529
5.647216081619263,525182467,3.344,-9.098,-0.617,0.000,0.000,0.000,-221571
5.6524341106414795,525187687,3.344,-9.098,-0.617,0.000,0.000,0.000,-223191
5.656653881072998,525191908,3.344,-9.098,-0.617,0.000,0.000,0.000,-222819
5.660866022109985,525196128,3.344,-9.133,-0.730,0.000,0.000,0.000,-222492
5.664179086685181,525199348,3.344,-9.133,-0.730,0.000,0.000,0.000,-222325
5.670314788818359,525205569,3.344,-9.133,-0.730,0.000,0.000,0.000,-222393
5.674527883529663,525209789,3.344,-9.133,-0.730,0.000,0.000,0.000,-222019
5.677835941314697,525213010,3.344,-9.133,-0.730,0.000,0.000,0.000,-222537
5.68300986289978,525218231,3.344,-9.133,-0.730,0.000,0.000,0.000,-222132
5.687229156494141,525222452,3.344,-9.133,-0.730,0.000,0.000,0.000,-222661
5.6914331912994385,525226673,3.344,-9.133,-0.730,0.000,0.000,0.000,-222265
5.693708896636963,525228894,3.344,-9.133,-0.730,0.000,0.000,0.000,-222643
5.697973966598511,525233115,3.344,-9.133,-0.730,0.000,0.000,0.000,-222046
5.70288610458374,525237336,3.344,-9.133,-0.730,0.000,0.000,0.000,-222378
5.705687999725342,525240557,3.344,-9.133,-0.730,0.000,0.000,0.000,-222507
5.711558103561401,525246777,3.344,-9.133,-0.730,0.000,0.000,0.000,-221471
5.715821981430054,525250997,3.344,-9.133,-0.730,0.000,0.000,0.000,-222689
5.721049070358276,525256218,3.344,-9.172,-0.656,0.000,0.000,0.000,-222420
5.72327995300293,525258439,3.344,-9.172,-0.656,0.000,0.000,0.000,-222237
5.728612899780273,525263660,3.344,-9.172,-0.656,0.000,0.000,0.000,-221605
5.733911037445068,525268881,3.344,-9.172,-0.656,0.000,0.000,0.000,-222242
5.739290952682495,525274102,3.305,-9.137,-0.730,0.000,0.000,0.000,-222662
5.7409539222717285,525276322,3.305,-9.137,-0.730,0.000,0.000,0.000,-222227
5.745254993438721,525280543,3.305,-9.137,-0.730,0.000,0.000,0.000,-222296
5.749495029449463,525284764,3.305,-9.137,-0.730,0.000,0.000,0.000,-222006
5.753780841827393,525288985,3.305,-9.137,-0.730,0.000,0.000,0.000,-222358
5.757966041564941,525293206,3.305,-9.137,-0.730,0.000,0.000,0.000,-222940
5.763273000717163,525298427,3.305,-9.137,-0.730,0.000,0.000,0.000,-221571
5.767611980438232,525302648,3.344,-9.137,-0.617,0.000,0.000,0.000,-222403
5.7710089683532715,525305869,3.344,-9.137,-0.617,0.000,0.000,0.000,-222667
5.7768731117248535,525312090,3.344,-9.137,-0.617,0.000,0.000,0.000,-221985
5.781116962432861,525316311,3.344,-9.137,-0.617,0.000,0.000,0.000,-221933
5.785374164581299,525320532,3.344,-9.137,-0.617,0.000,0.000,0.000,-222743
5.790719985961914,525325753,3.344,-9.137,-0.617,0.000,0.000,0.000,-222235
5.794002056121826,525328974,3.344,-9.133,-0.730,0.000,0.000,0.000,-221332
5.79613995552063,525331194,3.344,-9.133,-0.730,0.000,0.000,0.000,-222138
5.804455041885376,525338415,3.344,-9.133,-0.730,0.000,0.000,0.000,-222181
5.807352066040039,525342636,3.344,-9.094,-0.691,0.000,0.000,0.000,-222166
5.81059193611145,525345856,3.344,-9.094,-0.691,0.000,0.000,0.000,-222374
5.815823078155518,525351077,3.344,-9.094,-0.691,0.000,0.000,0.000,-221938
5.821048974990845,525356283,3.344,-9.094,-0.691,0.000,0.000,0.000,-221938
5.82532811164856,525360503,3.344,-9.094,-0.691,0.000,0.000,0.000,-222725
5.830857992172241,525365724,3.344,-9.094,-0.691,0.000,0.000,0.000,-222460
5.834100961685181,525368945,3.344,-9.094,-0.691,0.000,0.000,0.000,-221716
5.8381171226501465,525373166,3.305,-9.098,-0.691,0.000,0.000,0.000,-222308
5.841315031051636,525376387,3.305,-9.098,-0.691,0.000,0.000,0.000,-222223
5.846357822418213,525381608,3.305,-9.098,-0.691,0.000,0.000,0.000,-221218
5.851564884185791,525386829,3.305,-9.098,-0.691,0.000,0.000,0.000,-221971
5.855813026428223,525391050,3.305,-9.098,-0.691,0.000,0.000,0.000,-222389
5.86000919342041,525395271,3.305,-9.098,-0.691,0.000,0.000,0.000,-221759
5.865277051925659,525400494,3.305,-9.098,-0.691,0.000,0.000,0.000,-222265
5.87046217918396,525405715,3.305,-9.137,-0.922,0.000,0.000,0.000,-222478
5.872649192810059,525407936,3.305,-9.137,-0.922,0.000,0.000,0.000,-222967
5.878046035766602,525413157,3.305,-9.137,-0.922,0.000,0.000,0.000,-221847
5.88313889503479,525418378,3.305,-9.137,-0.922,0.000,0.000,0.000,-221542
5.886332035064697,525421599,3.344,-9.055,-0.617,0.000,0.000,0.000,-223198
5.888561010360718,525423820,3.344,-9.055,-0.617,0.000,0.000,0.000,-222986
5.8938868045806885,525429041,3.344,-9.055,-0.617,0.000,0.000,0.000,-222843
5.898124933242798,525433262,3.344,-9.055,-0.617,0.000,0.000,0.000,-222182
5.903313159942627,525438483,3.344,-9.055,-0.617,0.000,0.000,0.000,-222670
5.907433032989502,525442704,3.344,-9.055,-0.617,0.000,0.000,0.000,-222695
5.912764072418213,525447925,3.344,-9.055,-0.617,0.000,0.000,0.000,-221686
5.916918992996216,525452146,3.305,-9.172,-0.730,0.000,0.000,0.000,-222541
5.920162916183472,525455367,3.305,-9.172,-0.730,0.000,0.000,0.000,-221515
5.925554990768433,525460588,3.305,-9.172,-0.730,0.000,0.000,0.000,-222117
5.92981219291687,525464809,3.305,-9.172,-0.730,-0.018,-0.004,-0.023,-221760
5.934049844741821,525469030,3.344,-9.176,-0.465,-0.018,-0.004,-0.023,-222835
5.937814950942993,525472251,3.344,-9.176,-0.465,0.012,-0.016,-0.004,-222904
5.942126989364624,525477472,3.344,-9.176,-0.465,0.018,-0.014,0.016,-223006
5.946420192718506,525481693,3.344,-9.176,-0.465,0.027,-0.018,0.025,-222010
5.951704978942871,525486914,3.344,-9.176,-0.465,0.027,-0.012,0.016,-222118
5.955919981002808,525491135,3.344,-9.176,-0.465,0.006,-0.016,0.006,-222653
5.960270881652832,525495356,3.344,-9.176,-0.465,0.008,-0.010,-0.004,-222240
5.963279962539673,525498577,3.344,-9.059,-0.730,0.008,-0.010,-0.004,-222057
5.9665000438690186,525501798,3.344,-9.059,-0.730,-0.004,-0.014,-0.012,-222166
5.973034858703613,525508019,3.344,-9.059,-0.730,-0.012,-0.004,-0.031,-221835
5.977015018463135,525512240,3.344,-9.059,-0.730,0.000,0.008,-0.006,-222472
5.981359004974365,525516461,3.344,-9.059,-0.730,-0.010,0.012,0.002,-222141
5.985550880432129,525520682,3.344,-9.059,-0.730,0.004,0.025,0.008,-222748
5.990861892700195,525525903,3.344,-9.059,-0.730,0.000,0.023,0.008,-222853
5.996318101882935,525531124,3.266,-9.094,-0.961,0.000,0.023,0.008,-222467
5.99803614616394,525533345,3.266,-9.094,-0.961,0.021,0.016,0.018,-222822
6.003705978393555,525538566,3.266,-9.094,-0.961,0.002,0.021,0.006,-222315
6.00649094581604,525541787,3.266,-9.094,-0.961,0.002,0.010,-0.006,-222956
6.010743856430054,525546008,3.266,-9.094,-0.961,-0.016,-0.012,-0.014,-222556
6.015168905258179,525550229,3.266,-9.094,-0.961,-0.018,-0.012,-0.020,-221422
6.0183022022247314,525553450,3.266,-9.094,-0.961,-0.010,-0.016,-0.012,-222226
6.022534132003784,525557671,3.383,-9.172,-0.500,-0.010,-0.016,-0.012,-222383
6.025886058807373,525560892,3.383,-9.172,-0.500,-0.008,-0.018,-0.016,-221921
6.032113075256348,525567113,3.383,-9.172,-0.500,0.021,-0.018,0.021,-221613
6.036307096481323,525571334,3.383,-9.172,-0.500,0.016,-0.021,0.020,-223000
6.0410120487213135,525575555,3.383,-9.172,-0.500,0.027,-0.010,0.033,-222416
6.044562101364136,525579776,3.383,-9.172,-0.500,0.012,0.000,0.016,-222290
6.0486979484558105,525583997,3.383,-9.172,-0.500,0.000,-0.006,0.002,-221862
6.053896188735962,525589218,3.383,-9.098,-0.770,0.000,-0.006,0.002,-222734
6.0572099685668945,525592439,3.383,-9.098,-0.770,-0.012,0.004,-0.006,-222226
6.063569068908691,525598661,3.383,-9.098,-0.770,-0.016,0.006,-0.006,-221915
6.067697048187256,525602882,3.383,-9.098,-0.770,-0.008,0.014,-0.012,-222326
6.0718419551849365,525607103,3.383,-9.098,-0.770,-0.006,0.008,0.002,-222177
6.076045036315918,525611326,3.383,-9.098,-0.770,0.012,0.014,0.004,-221407
6.080303907394409,525615546,3.383,-9.098,-0.770,0.006,-0.004,0.008,-222378
6.084519147872925,525619767,3.305,-9.059,-0.883,0.006,-0.004,0.008,-223007
6.086943864822388,525621988,3.305,-9.059,-0.883,0.000,0.012,0.020,-222499
6.0919342041015625,525627209,3.305,-9.059,-0.883,0.000,-0.010,0.002,-221462
6.096137046813965,525631430,3.305,-9.059,-0.883,-0.008,0.002,-0.008,-222165
6.100409984588623,525635651,3.305,-9.059,-0.883,-0.006,0.002,-0.008,-222012
6.105613946914673,525640872,3.305,-9.059,-0.883,-0.012,-0.004,-0.023,-221896
6.110816955566406,525646093,3.305,-9.059,-0.883,-0.004,-0.002,-0.012,-222937
6.115031957626343,525650314,3.422,-9.176,-0.539,-0.004,-0.002,-0.012,-222213
6.118226051330566,525653535,3.422,-9.176,-0.539,-0.006,0.002,0.008,-222226
6.124496936798096,525659756,3.422,-9.176,-0.539,0.006,0.006,0.016,-221562
6.128724098205566,525663977,3.422,-9.176,-0.539,0.006,0.002,0.014,-221798
6.131925821304321,525667198,3.422,-9.176,-0.539,0.002,0.012,0.002,-223336
6.136223077774048,525671419,3.422,-9.176,-0.539,0.000,0.002,0.012,-222993
6.140377998352051,525675640,3.422,-9.176,-0.539,0.002,-0.006,0.004,-222415
6.1436169147491455,525678861,3.344,-9.094,-0.730,0.002,-0.006,0.004,-222212
6.145814895629883,525681082,3.344,-9.094,-0.730,0.002,-0.014,-0.006,-222297
6.151124954223633,525686303,3.344,-9.094,-0.730,0.006,-0.014,-0.008,-222490
6.156466007232666,525691524,3.383,-9.137,-0.578,0.006,-0.014,-0.008,-222519
6.159497976303101,525694745,3.383,-9.137,-0.578,0.004,-0.010,-0.002,-222309
6.164680004119873,525699966,3.383,-9.137,-0.578,0.018,-0.006,0.006,-221634
6.170062065124512,525705187,3.383,-9.137,-0.578,0.014,-0.006,0.016,-222536
6.174159049987793,525709408,3.383,-9.137,-0.578,-0.006,0.008,0.000,-221594
6.1783668994903564,525713629,3.383,-9.137,-0.578,-0.002,-0.002,0.008,-222475
6.181619167327881,525716850,3.383,-9.137,-0.578,0.006,0.012,0.006,-222185
6.185765981674194,525721071,3.305,-9.137,-0.730,0.006,0.012,0.006,-222403
6.189108848571777,525724293,3.305,-9.137,-0.730,0.006,0.010,-0.002,-223198
6.1945250034332275,525729514,3.305,-9.137,-0.730,0.000,0.014,-0.010,-221765
6.199797868728638,525734735,3.305,-9.137,-0.730,0.006,0.002,-0.014,-221973
6.204255104064941,525738956,3.305,-9.137,-0.730,-0.008,0.006,-0.004,-222037
6.208997964859009,525744177,3.305,-9.137,-0.730,-0.006,0.008,0.012,-221697
6.213166952133179,525748398,3.305,-9.137,-0.730,0.000,0.002,-0.004,-221690
6.217408895492554,525752619,3.344,-9.137,-0.809,0.000,0.002,-0.004,-222383
6.220668077468872,525755840,3.344,-9.137,-0.809,0.008,0.002,0.004,-222534
6.227093935012817,525762061,3.344,-9.137,-0.809,-0.010,0.000,0.000,-221800
6.232249975204468,525767282,3.344,-9.137,-0.809,0.014,0.002,0.000,-222162
6.236607789993286,525771502,3.344,-9.137,-0.809,-0.004,-0.006,-0.004,-222084
6.2414939403533936,525776723,3.344,-9.137,-0.809,-0.006,-0.012,-0.004,-221862
6.246766090393066,525781944,3.383,-9.137,-0.617,-0.006,-0.012,-0.004,-221605
6.24990701675415,525785165,3.383,-9.137,-0.617,0.002,-0.002,0.000,-222289
6.256116151809692,525791386,3.383,-9.137,-0.617,0.006,0.004,0.000,-222535
6.260349988937378,525795607,3.383,-9.137,-0.617,0.012,0.006,0.012,-221394
6.264610052108765,525799829,3.383,-9.137,-0.617,0.006,0.000,-0.002,-221982
6.269896030426025,525805050,3.383,-9.137,-0.617,0.000,-0.002,0.010,-222497
6.27505087852478,525810271,3.383,-9.137,-0.617,-0.008,-0.002,-0.006,-222719
6.278265953063965,525813493,3.344,-9.176,-0.730,-0.008,-0.002,-0.006,-221890
6.280465126037598,525815714,3.344,-9.176,-0.730,-0.006,-0.002,-0.014,-222004
6.2846839427948,525819935,3.344,-9.176,-0.730,0.002,0.006,-0.004,-222410
6.288898944854736,525824156,3.344,-9.176,-0.730,-0.008,-0.008,-0.008,-222053
6.29415488243103,525829377,3.344,-9.176,-0.730,0.002,0.014,-0.006,-221947
6.2984418869018555,525833598,3.344,-9.176,-0.730,-0.008,0.006,0.012,-222657
6.301753997802734,525836819,3.344,-9.176,-0.730,-0.008,-0.008,0.004,-222421
6.305948972702026,525841040,3.305,-9.133,-0.656,-0.008,-0.008,0.004,-222967
6.30898904800415,525844261,3.305,-9.133,-0.656,-0.008,0.000,0.006,-222288
6.314226150512695,525849482,3.305,-9.133,-0.656,0.014,0.008,0.010,-222067
6.319477796554565,525854703,3.305,-9.133,-0.656,0.008,0.000,-0.016,-223084
6.323830842971802,525858924,3.305,-9.133,-0.656,-0.006,0.002,0.006,-222506
6.3291261196136475,525864145,3.305,-9.133,-0.656,-0.002,0.000,-0.008,-222449
6.333369970321655,525868366,3.305,-9.133,-0.656,-0.004,-0.002,0.006,-222518
6.33787989616394,525871587,3.344,-9.094,-0.730,-0.004,-0.002,0.006,-222394
6.3388049602508545,525873808,3.344,-9.094,-0.730,0.006,0.000,-0.008,-221869
6.343766927719116,525879029,3.344,-9.094,-0.730,0.002,-0.010,-0.006,-222091
6.34802508354187,525883250,3.344,-9.094,-0.730,-0.010,-0.010,0.004,-221655
6.353231906890869,525888471,3.344,-9.094,-0.730,-0.004,-0.010,0.012,-222273
6.357545852661133,525892692,3.344,-9.094,-0.730,-0.004,-0.014,0.004,-222484
6.361888885498047,525896913,3.344,-9.094,-0.730,0.006,-0.004,0.008,-221643
6.366124868392944,525901134,3.383,-9.055,-0.770,0.006,-0.004,0.008,-222235
6.3683459758758545,525903355,3.383,-9.055,-0.770,-0.008,-0.002,0.004,-222275
6.373327016830444,525908576,3.383,-9.055,-0.770,0.002,0.006,-0.004,-221738
6.377584934234619,525912797,3.383,-9.055,-0.770,-0.002,0.010,-0.006,-221610
6.381807088851929,525917018,3.383,-9.055,-0.770,0.000,0.004,-0.008,-221743
6.386015892028809,525921239,3.383,-9.055,-0.770,-0.008,0.010,-0.006,-221470
6.3914148807525635,525926460,3.383,-9.055,-0.770,0.006,0.004,-0.014,-221969
6.39464807510376,525929681,3.344,-9.133,-0.730,0.006,0.004,-0.014,-221764
6.4002931118011475,525934902,3.344,-9.133,-0.730,-0.002,0.010,-0.010,-222165
6.404039144515991,525939123,3.344,-9.133,-0.730,-0.014,0.008,0.012,-222528
6.408052921295166,525943344,3.344,-9.133,-0.730,0.016,0.002,-0.016,-222605
6.412348985671997,525947565,3.344,-9.133,-0.730,-0.006,-0.004,0.010,-222011
6.415570020675659,525950786,3.344,-9.133,-0.691,-0.006,-0.004,0.010,-222251
6.418887138366699,525954007,3.344,-9.133,-0.691,0.012,-0.008,-0.004,-222370
6.424212217330933,525959228,3.344,-9.133,-0.691,0.006,-0.006,-0.004,-222140
6.429425954818726,525964449,3.344,-9.133,-0.691,0.004,0.002,-0.008,-222021
6.433726787567139,525968670,3.344,-9.133,-0.691,0.008,0.000,0.008,-222406
6.438585042953491,525973891,3.344,-9.133,-0.691,0.000,-0.002,0.010,-221885
6.443865060806274,525979112,3.344,-9.133,-0.691,-0.006,-0.004,0.006,-221982
6.449074983596802,525984333,3.422,-9.098,-0.691,-0.006,-0.004,0.006,-222586
6.451246023178101,525986554,3.422,-9.098,-0.691,0.006,-0.006,-0.008,-221494
6.456498146057129,525991775,3.422,-9.098,-0.691,0.000,-0.004,0.010,-222070
6.460752964019775,525995996,3.422,-9.098,-0.691,-0.014,0.000,0.004,-221866
6.4649388790130615,526000217,3.422,-9.098,-0.691,0.004,0.006,0.000,-220735
6.471228122711182,526006438,3.422,-9.098,-0.691,-0.010,-0.010,0.010,-222736
6.475404977798462,526010659,3.422,-9.098,-0.691,-0.010,0.010,0.000,-222436
6.478752851486206,526013880,3.383,-9.094,-0.730,-0.010,0.010,0.000,-222640
6.481859922409058,526017101,3.383,-9.094,-0.730,-0.002,-0.002,-0.012,-221747
6.487056016921997,526022322,3.383,-9.094,-0.730,-0.012,-0.002,-0.008,-222670
6.492321968078613,526027544,3.383,-9.094,-0.730,-0.004,0.000,-0.004,-222350
6.496581077575684,526031765,3.383,-9.094,-0.730,0.006,0.008,-0.006,-222302
6.502352952957153,526036986,3.383,-9.094,-0.730,-0.004,0.004,0.010,-221948
6.506057024002075,526041207,3.383,-9.094,-0.730,0.002,0.008,-0.016,-221948
6.51125693321228,526046428,3.344,-9.094,-0.730,0.002,0.008,-0.016,-222376
6.513391017913818,526048649,3.344,-9.094,-0.730,0.004,0.008,0.010,-221997
6.5186851024627686,526053870,3.344,-9.094,-0.730,-0.008,0.000,0.000,-222538
6.522937059402466,526058091,3.344,-9.094,-0.730,-0.006,0.000,0.002,-221655
6.526267051696777,526061312,3.344,-9.094,-0.730,0.006,0.006,0.004,-222049
6.531518936157227,526066533,3.344,-9.094,-0.730,0.006,-0.014,-0.012,-221329
6.535762071609497,526070754,3.344,-9.176,-0.691,0.006,-0.014,-0.012,-222633
6.539115905761719,526073975,3.344,-9.176,-0.691,-0.002,-0.002,-0.008,-223111
6.543945074081421,526079196,3.344,-9.176,-0.691,0.008,-0.010,0.012,-222067
6.549215793609619,526084417,3.344,-9.176,-0.691,0.006,0.004,0.008,-222112
6.553425073623657,526088638,3.344,-9.176,-0.691,-0.004,-0.010,-0.004,-222510
6.557710886001587,526092859,3.344,-9.176,-0.691,0.010,0.000,0.008,-222390
6.562250852584839,526097080,3.344,-9.176,-0.691,0.002,-0.004,0.012,-222809
6.566298007965088,526101301,3.344,-9.098,-0.770,0.002,-0.004,0.012,-221472
6.568494081497192,526103522,3.344,-9.098,-0.770,-0.002,0.006,0.000,-221745
6.573500156402588,526108743,3.344,-9.098,-0.770,-0.008,0.006,-0.008,-222472
6.5777199268341064,526112964,3.344,-9.098,-0.770,-0.002,-0.002,-0.018,-222222
6.581979990005493,526117185,3.344,-9.098,-0.770,-0.008,0.002,-0.008,-222615
6.586220026016235,526121406,3.344,-9.098,-0.770,-0.006,0.008,-0.010,-222117
6.591583013534546,526126627,3.344,-9.098,-0.770,0.002,0.002,0.008,-223132
6.596844911575317,526131848,3.344,-9.133,-0.730,0.002,0.002,0.008,-221839
6.59912109375,526134069,3.344,-9.133,-0.730,-0.006,0.000,-0.012,-222635
6.604436874389648,526139290,3.344,-9.133,-0.730,0.000,0.014,0.010,-222429
6.6081929206848145,526143511,3.344,-9.133,-0.730,0.002,0.000,0.000,-222054
6.613588809967041,526148732,3.344,-9.133,-0.730,-0.004,-0.002,-0.006,-221858
6.617737770080566,526152953,3.344,-9.133,-0.730,-0.002,0.002,0.002,-222558
6.6220409870147705,526157174,3.344,-9.133,-0.730,-0.002,0.002,0.002,-222131
6.624262094497681,526159395,3.344,-9.133,-0.730,0.002,-0.004,-0.004,-222211
6.629671096801758,526164616,3.344,-9.133,-0.730,-0.008,-0.002,0.004,-222171
6.634844064712524,526169837,3.344,-9.133,-0.730,0.000,-0.002,-0.004,-222561
6.6388561725616455,526174058,3.344,-9.133,-0.730,0.010,-0.010,-0.012,-222584
6.642985105514526,526178280,3.344,-9.133,-0.730,0.002,-0.004,-0.002,-221824
6.648251056671143,526183500,3.344,-9.133,-0.730,0.012,-0.004,0.006,-221991
6.652462005615234,526187721,3.344,-9.133,-0.730,0.012,-0.004,0.006,-221596
6.654691934585571,526189942,3.344,-9.133,-0.730,-0.002,0.000,-0.002,-223348
6.659913063049316,526195163,3.344,-9.133,-0.730,0.002,-0.002,0.000,-222231
6.66415810585022,526199384,3.344,-9.133,-0.730,-0.006,0.002,-0.004,-221502
6.669312000274658,526204605,3.344,-9.133,-0.730,-0.008,0.002,0.002,-222892
6.674570798873901,526209826,3.344,-9.133,-0.730,0.006,0.002,-0.002,-222496
6.6797850131988525,526215047,3.344,-9.133,-0.730,0.004,-0.004,-0.012,-222174
6.684072017669678,526219270,3.305,-9.094,-0.617,0.004,-0.004,-0.012,-222439
6.68724799156189,526222490,3.305,-9.094,-0.617,0.002,0.000,-0.002,-221771
6.693469047546387,526228711,3.305,-9.094,-0.617,0.004,0.010,-0.006,-222164
6.697780132293701,526232932,3.305,-9.094,-0.617,-0.002,-0.006,0.006,-221715
6.70225715637207,526237153,3.305,-9.094,-0.617,-0.002,0.000,-0.002,-222100
6.706264019012451,526241374,3.305,-9.094,-0.617,-0.006,-0.002,0.002,-222277
6.711370944976807,526246595,3.305,-9.094,-0.617,-0.006,0.006,0.000,-221639
6.7146289348602295,526249816,3.383,-9.133,-0.691,-0.006,0.006,0.000,-222312
6.7167909145355225,526252037,3.383,-9.133,-0.691,0.012,0.000,-0.004,-222488
6.721997976303101,526257258,3.383,-9.133,-0.691,0.002,0.008,0.016,-222808
6.726250886917114,526261479,3.383,-9.133,-0.691,-0.004,-0.004,0.012,-222485
6.730721950531006,526265700,3.383,-9.133,-0.691,0.004,0.000,0.010,-221942
6.735128879547119,526269921,3.383,-9.133,-0.691,-0.004,0.002,0.006,-222005
6.739064931869507,526274142,3.383,-9.133,-0.691,0.000,0.006,0.004,-223179
6.744105815887451,526279362,3.383,-9.059,-0.691,0.000,0.006,0.004,-222788
6.746335983276367,526281582,3.383,-9.059,-0.691,0.010,0.014,-0.002,-222150
6.751590013504028,526286803,3.383,-9.059,-0.691,-0.010,0.004,-0.008,-222101
6.7568840980529785,526292024,3.383,-9.059,-0.691,0.004,-0.002,0.002,-222329
6.762411832809448,526297245,3.383,-9.059,-0.691,0.006,0.008,-0.002,-221554
6.7664570808410645,526301466,3.344,-9.094,-0.730,0.006,0.008,-0.002,-222178
6.770485877990723,526304687,3.344,-9.094,-0.730,-0.010,0.004,0.008,-222075
6.774595022201538,526309908,3.344,-9.094,-0.730,-0.006,0.000,0.004,-222554
6.779834985733032,526315129,3.344,-9.094,-0.730,0.000,-0.004,-0.004,-222126
6.784128904342651,526319350,3.344,-9.094,-0.730,0.012,-0.002,0.002,-222710
6.789422988891602,526324571,3.344,-9.094,-0.730,0.004,-0.002,-0.004,-222132
6.793928146362305,526328792,3.344,-9.094,-0.730,0.006,0.002,0.006,-221768
6.797982215881348,526333013,3.266,-9.137,-0.691,0.006,0.002,0.006,-221605
6.80121111869812,526336234,3.266,-9.137,-0.691,-0.002,0.000,0.000,-222188
6.80718994140625,526342455,3.266,-9.137,-0.691,-0.004,0.002,0.004,-222489
6.812425136566162,526347676,3.266,-9.137,-0.691,0.000,0.000,-0.008,-221675
6.816701173782349,526351897,3.266,-9.137,-0.691,-0.002,0.006,0.006,-222312
6.8219218254089355,526357118,3.266,-9.137,-0.691,0.006,0.006,0.000,-222138
6.826170921325684,526361339,3.383,-9.137,-0.656,0.006,0.006,0.000,-221779
6.8285300731658936,526363560,3.383,-9.137,-0.656,0.014,-0.004,0.008,-221717
6.834021091461182,526368781,3.383,-9.137,-0.656,0.008,0.014,-0.004,-222412
6.837001085281372,526372002,3.383,-9.137,-0.656,-0.004,-0.004,0.010,-222224
6.84141206741333,526376223,3.383,-9.137,-0.656,0.018,0.002,-0.004,-222083
6.845117092132568,526380446,3.383,-9.137,-0.656,0.008,0.016,0.002,-221563
6.849406957626343,526384666,3.383,-9.137,-0.656,0.000,0.000,-0.004,-222971
6.854639053344727,526389887,3.344,-9.172,-0.770,0.000,0.000,-0.004,-222013
6.857898950576782,526393108,3.344,-9.172,-0.770,-0.002,-0.006,-0.002,-222321
6.863118886947632,526398329,3.344,-9.172,-0.770,-0.006,-0.002,-0.006,-222447
6.867877006530762,526402550,3.344,-9.172,-0.770,0.004,-0.006,-0.012,-222279
6.872529029846191,526407771,3.344,-9.172,-0.770,0.002,-0.014,-0.004,-222666
6.876758813858032,526411992,3.344,-9.172,-0.770,-0.002,0.000,0.006,-221806
6.880955934524536,526416213,3.344,-9.172,-0.770,0.000,0.008,0.020,-221713
6.886189937591553,526421434,3.344,-9.098,-0.656,0.000,0.008,0.020,-222314
6.889352083206177,526424655,3.344,-9.098,-0.656,0.006,0.000,0.006,-221947
6.895742893218994,526430876,3.344,-9.098,-0.656,-0.010,-0.006,0.004,-221506
6.900145053863525,526435097,3.344,-9.098,-0.656,-0.004,-0.002,-0.010,-221883
6.904407978057861,526439318,3.344,-9.098,-0.656,0.000,0.002,-0.014,-222286
6.908237934112549,526443539,3.344,-9.098,-0.656,-0.008,0.000,0.012,-222390
6.913520097732544,526448760,3.344,-9.098,-0.656,0.008,-0.004,-0.004,-222557
6.917788982391357,526452981,3.305,-9.098,-0.691,0.008,-0.004,-0.004,-221800
6.920947074890137,526456202,3.305,-9.098,-0.691,0.012,-0.002,0.000,-222406
6.927293062210083,526462423,3.305,-9.098,-0.691,-0.006,0.000,0.016,-221969
6.932646989822388,526467644,3.305,-9.098,-0.691,0.008,0.000,-0.008,-222476
6.937438011169434,526471865,3.305,-9.098,-0.691,-0.004,-0.004,-0.012,-221747
6.94179105758667,526477086,3.305,-9.098,-0.691,-0.006,-0.004,0.004,-222654
6.946068048477173,526481307,3.344,-9.137,-0.617,-0.006,-0.004,0.004,-221624
6.948308229446411,526483513,3.344,-9.137,-0.617,0.002,0.008,-0.008,-221624
6.952532052993774,526487733,3.344,-9.137,-0.617,-0.008,0.006,-0.014,-222471
6.9568400382995605,526491954,3.344,-9.137,-0.617,0.000,0.008,0.014,-222667
6.960935115814209,526496175,3.344,-9.137,-0.617,-0.008,-0.002,-0.006,-221636
6.96508002281189,526500396,3.344,-9.137,-0.617,0.000,0.002,-0.004,-221677
6.9694249629974365,526504617,3.344,-9.137,-0.617,0.004,-0.006,-0.004,-223047
6.974638938903809,526509838,3.344,-9.176,-0.691,0.004,-0.006,-0.004,-222835
6.977820158004761,526513059,3.344,-9.176,-0.691,0.002,0.002,0.004,-222309
6.983113050460815,526518282,3.344,-9.176,-0.691,0.006,-0.004,-0.006,-222042
6.987344026565552,526522502,3.344,-9.176,-0.691,-0.006,0.008,0.004,-222147
6.992707967758179,526527723,3.344,-9.176,-0.691,-0.004,-0.010,-0.008,-222402
6.996896982192993,526531944,3.344,-9.176,-0.691,0.004,0.000,-0.006,-221973
