pc_time_s,teensy_time_us,ax,ay,az,gx,gy,gz,load_raw
2.007388417,125980316,3.266,-9.133,-0.539,0.002,0.000,-0.008,-222344
2.00784725,125984537,3.305,-9.133,-0.578,0.002,0.000,-0.008,-222208
2.008077458,125987758,3.305,-9.133,-0.578,0.000,0.008,0.004,-222935
2.008316708,125992978,3.305,-9.133,-0.578,-0.002,0.012,-0.002,-222315
2.008566083,125998201,3.305,-9.133,-0.578,0.002,-0.006,0.002,-222581
2.008790833,126001422,3.305,-9.133,-0.578,0.000,0.006,0.000,-221722
2.009026292,126005643,3.305,-9.133,-0.578,-0.014,-0.004,0.004,-222554
2.009257,126009864,3.305,-9.133,-0.578,0.002,0.000,0.016,-222903
2.009475042,126015085,3.266,-9.133,-0.617,0.002,0.000,0.016,-223073
2.009686833,126017306,3.266,-9.133,-0.617,0.010,-0.004,0.012,-221794
2.009897958,126022527,3.266,-9.133,-0.617,-0.004,0.004,0.010,-223105
2.010099625,126027748,3.266,-9.133,-0.617,0.000,0.000,-0.010,-222726
2.010325542,126031969,3.266,-9.133,-0.617,0.004,-0.006,-0.002,-222676
2.010552667,126038190,3.266,-9.133,-0.617,0.008,-0.004,0.002,-222976
2.010783,126042411,3.266,-9.133,-0.617,-0.008,0.004,-0.006,-223784
2.011051917,126046632,3.266,-9.133,-0.617,-0.008,0.004,-0.006,-223343
2.011275042,126048853,3.266,-9.133,-0.617,-0.010,0.000,-0.020,-222388
2.011644708,126054074,3.266,-9.133,-0.617,-0.008,-0.004,0.006,-221581
2.011871375,126059295,3.266,-9.133,-0.617,-0.002,0.006,0.012,-222925
2.012096917,126063516,3.266,-9.133,-0.617,0.004,0.002,-0.012,-222050
2.01231325,126067737,3.266,-9.133,-0.617,0.002,-0.008,0.008,-222701
2.012540792,126072958,3.266,-9.133,-0.617,-0.002,0.002,-0.008,-222682
2.01276075,126078179,3.305,-9.133,-0.578,-0.002,0.002,-0.008,-222987
2.012979583,126081400,3.305,-9.133,-0.578,-0.010,0.000,-0.010,-221550
2.013213667,126086621,3.305,-9.133,-0.578,-0.002,-0.010,-0.002,-222708
2.013425,126090842,3.305,-9.133,-0.578,0.008,0.002,0.004,-222348
2.01367,126096063,3.305,-9.133,-0.578,-0.002,0.002,-0.002,-222344
2.013892208,126100284,3.305,-9.133,-0.578,-0.010,-0.004,0.002,-222189
2.014119458,126104505,3.305,-9.133,-0.578,-0.010,0.002,0.006,-222847
2.014334333,126108726,3.266,-9.133,-0.539,-0.010,0.002,0.006,-223568
2.014560667,126110947,3.266,-9.133,-0.539,-0.006,-0.004,0.004,-223778
2.014774375,126117168,3.266,-9.133,-0.539,0.002,0.008,-0.002,-222442
2.014993542,126121389,3.266,-9.133,-0.539,-0.004,-0.006,0.004,-222522
2.01521575,126125610,3.266,-9.133,-0.539,0.010,-0.004,0.004,-222552
2.015420083,126130831,3.266,-9.133,-0.539,0.006,-0.006,0.004,-223125
2.015614375,126136052,3.266,-9.133,-0.539,0.002,-0.004,0.000,-222112
2.015795917,126140273,3.266,-9.133,-0.617,0.002,-0.004,0.000,-222546
2.015982708,126142494,3.266,-9.133,-0.617,0.000,0.008,0.002,-223852
2.016163208,126146714,3.266,-9.133,-0.617,-0.002,0.000,0.002,-222318
2.016349375,126150935,3.266,-9.133,-0.617,0.008,-0.006,0.002,-221757
2.016533542,126155156,3.266,-9.133,-0.617,-0.008,0.000,-0.002,-222782
2.0167125,126159377,3.266,-9.133,-0.617,0.004,0.002,-0.002,-223526
2.016906708,126163598,3.266,-9.133,-0.617,0.002,-0.006,-0.004,-222875
2.017091042,126168819,3.266,-9.176,-0.656,0.002,-0.006,-0.004,-222057
2.017283458,126171040,3.266,-9.176,-0.656,0.010,0.004,-0.008,-222523
2.01746625,126176261,3.266,-9.176,-0.656,0.004,0.008,0.000,-222342
2.017655042,126180481,3.266,-9.176,-0.656,-0.002,-0.008,0.002,-223047
2.017886458,126184702,3.266,-9.176,-0.656,0.006,0.004,0.000,-222342
2.018068792,126189923,3.266,-9.176,-0.656,0.000,-0.002,0.018,-222914
2.018258,126194144,3.266,-9.176,-0.656,0.004,-0.006,0.002,-222268
2.018441208,126198365,3.266,-9.133,-0.539,0.004,-0.006,0.002,-222161
2.018636542,126201586,3.266,-9.133,-0.539,-0.008,-0.006,-0.006,-223018
2.018826083,126206807,3.266,-9.133,-0.539,0.010,0.002,0.008,-222541
2.019132583,126211028,3.266,-9.133,-0.539,0.006,0.010,-0.012,-223113
2.019888042,126216249,3.266,-9.133,-0.539,-0.008,0.014,0.006,-222756
2.020073125,126220470,3.266,-9.133,-0.539,-0.002,0.004,0.002,-222119
2.020281,126224691,3.266,-9.133,-0.539,0.008,-0.004,-0.012,-222205
2.020463708,126228912,3.266,-9.133,-0.656,0.008,-0.004,-0.012,-223239
2.02065025,126231133,3.266,-9.133,-0.656,0.008,-0.008,0.002,-222749
2.020833,126236354,3.266,-9.133,-0.656,-0.006,-0.006,0.000,-221662
2.02102175,126240575,3.266,-9.133,-0.656,0.008,-0.006,-0.006,-222440
2.021206083,126243796,3.266,-9.133,-0.656,-0.002,-0.002,-0.002,-223122
2.021382125,126249017,3.266,-9.133,-0.656,-0.002,0.004,0.004,-222008
2.021533417,126254238,3.266,-9.133,-0.656,0.000,0.004,0.008,-221744
2.0216935,126258459,3.266,-9.133,-0.539,0.000,0.004,0.008,-222226
2.021847833,126260680,3.266,-9.133,-0.539,-0.006,0.006,0.004,-222621
2.0220005,126265901,3.266,-9.133,-0.539,0.004,0.002,0.000,-221292
2.022223542,126270122,3.266,-9.133,-0.539,-0.008,0.000,0.002,-222652
2.022385792,126274343,3.266,-9.133,-0.539,-0.004,0.002,0.006,-222927
2.02254925,126280564,3.266,-9.133,-0.539,0.002,0.008,0.002,-222997
2.022708042,126285785,3.266,-9.133,-0.539,-0.014,0.002,0.002,-222030
2.02287275,126289006,3.266,-9.133,-0.578,-0.014,0.002,0.002,-222972
2.023028125,126292227,3.266,-9.133,-0.578,0.010,0.012,0.006,-223037
2.023181125,126298448,3.266,-9.133,-0.578,0.012,0.006,0.010,-221657
2.023347333,126302669,3.266,-9.133,-0.578,0.002,0.000,-0.006,-221549
2.023504792,126306890,3.266,-9.133,-0.578,-0.002,0.000,0.000,-222652
2.023676542,126311111,3.266,-9.133,-0.578,0.002,-0.006,-0.010,-222270
2.0238325,126316332,3.266,-9.133,-0.578,0.010,-0.004,0.014,-222608
2.023994167,126320553,3.227,-9.172,-0.617,0.010,-0.004,0.014,-222672
2.024150167,126323774,3.227,-9.172,-0.617,-0.004,0.010,0.002,-222967
2.024310125,126328995,3.227,-9.172,-0.617,0.006,0.002,0.004,-222999
2.024469792,126334216,3.227,-9.172,-0.617,-0.010,-0.012,0.004,-221644
2.024631167,126338437,3.227,-9.172,-0.617,-0.012,0.004,-0.004,-222817
2.024796833,126342658,3.227,-9.172,-0.617,0.000,-0.012,0.006,-222503
2.024952667,126346879,3.227,-9.172,-0.617,0.008,0.002,-0.002,-222326
2.02511475,126351101,3.227,-9.137,-0.539,0.008,0.002,-0.002,-222233
2.025271417,126354322,3.227,-9.137,-0.539,0.000,0.000,0.012,-222820
2.025432625,126359542,3.227,-9.137,-0.539,0.002,0.002,0.004,-222710
2.025589708,126363763,3.227,-9.137,-0.539,0.000,-0.004,0.000,-222936
2.025742917,126367984,3.227,-9.137,-0.539,0.004,0.008,0.000,-222003
2.025915083,126372205,3.227,-9.137,-0.539,0.006,0.006,0.016,-222043
2.026073167,126377426,3.227,-9.137,-0.539,0.006,0.002,-0.018,-222799
2.026236792,126381647,3.266,-9.176,-0.617,0.006,0.002,-0.018,-222622
2.026393458,126384868,3.266,-9.176,-0.617,-0.010,0.008,0.004,-222876
2.026572125,126390089,3.266,-9.176,-0.617,0.002,-0.002,0.002,-222661
2.0267415,126394310,3.266,-9.176,-0.617,-0.004,-0.004,0.004,-222821
2.026901,126399531,3.266,-9.176,-0.617,0.000,0.010,0.000,-222460
2.027060542,126403751,3.266,-9.176,-0.617,-0.006,-0.010,0.000,-222911
2.027222333,126407972,3.266,-9.176,-0.617,-0.004,-0.004,0.018,-222536
2.027376792,126413193,3.266,-9.176,-0.617,-0.004,-0.004,0.018,-223792
2.027524333,126416414,3.266,-9.176,-0.617,0.008,0.008,0.012,-222052
2.027675958,126422635,3.266,-9.176,-0.617,-0.008,0.006,-0.004,-222800
2.027815583,126426856,3.266,-9.176,-0.617,-0.002,0.004,0.006,-223055
2.027963125,126431077,3.266,-9.176,-0.617,-0.004,-0.010,0.008,-221989
2.028102875,126436298,3.266,-9.176,-0.617,0.002,0.002,-0.008,-222020
2.028247208,126440519,3.266,-9.176,-0.617,-0.004,-0.002,-0.004,-223212
2.028417625,126444740,3.305,-9.133,-0.578,-0.004,-0.002,-0.004,-223675
2.028564667,126447961,3.305,-9.133,-0.578,-0.010,-0.006,0.010,-221490
2.028712375,126454182,3.305,-9.133,-0.578,0.000,0.008,-0.002,-221691
2.028857125,126459403,3.305,-9.133,-0.578,-0.004,0.000,0.004,-222823
2.029003833,126463624,3.305,-9.133,-0.578,-0.002,0.004,-0.006,-223138
2.029147625,126467845,3.305,-9.133,-0.578,-0.004,-0.006,-0.010,-222108
2.029293625,126472066,3.305,-9.133,-0.578,-0.002,0.004,0.000,-222294
2.029434333,126477287,3.227,-9.137,-0.617,-0.002,0.004,0.000,-222788
2.029583833,126480508,3.227,-9.137,-0.617,-0.010,0.004,-0.002,-222270
2.029727917,126485729,3.227,-9.137,-0.617,0.002,0.014,-0.002,-221401
2.029867458,126489950,3.227,-9.137,-0.617,0.008,0.006,-0.012,-223059
2.0301325,126493171,3.227,-9.137,-0.617,-0.002,-0.008,0.004,-221939
2.030275625,126498392,3.227,-9.137,-0.617,-0.004,0.002,-0.002,-222431
2.03042425,126502613,3.227,-9.137,-0.617,-0.002,0.000,0.006,-222080
2.030567292,126506834,3.227,-9.172,-0.578,-0.002,0.000,0.006,-221763
2.030704375,126509055,3.227,-9.172,-0.578,0.008,-0.008,0.014,-222535
2.030847375,126514276,3.227,-9.172,-0.578,-0.012,0.008,0.000,-222485
2.031234083,126519497,3.227,-9.172,-0.578,0.000,0.000,-0.002,-222702
2.031383208,126523718,3.227,-9.172,-0.578,-0.002,0.002,0.002,-222914
2.031525125,126527939,3.227,-9.172,-0.578,0.000,-0.006,0.002,-222654
2.031681958,126533161,3.227,-9.172,-0.578,-0.002,0.010,-0.010,-222699
2.031822625,126538382,3.227,-9.172,-0.578,-0.002,0.010,-0.010,-222289
2.03196125,126540603,3.227,-9.172,-0.578,0.002,0.008,-0.002,-222419
2.032111708,126545824,3.227,-9.172,-0.578,-0.008,-0.006,0.008,-223157
2.032260333,126550045,3.266,-9.094,-0.617,-0.008,-0.006,0.008,-221612
2.0324035,126553266,3.266,-9.094,-0.617,0.002,0.006,-0.002,-222910
2.032546542,126558487,3.266,-9.094,-0.617,0.002,0.000,-0.002,-222354
2.032690792,126562708,3.266,-9.094,-0.617,0.000,-0.008,0.002,-222567
2.032835667,126566929,3.266,-9.094,-0.617,0.000,0.000,0.002,-222828
2.032980458,126572150,3.266,-9.094,-0.617,-0.002,0.006,0.004,-223245
2.033121417,126577371,3.266,-9.094,-0.617,-0.004,0.000,0.004,-223562
2.033259458,126581592,3.266,-9.133,-0.500,-0.004,0.000,0.004,-223004
2.033407417,126583813,3.266,-9.133,-0.500,0.000,-0.004,0.010,-222385
2.033557667,126589034,3.266,-9.133,-0.500,0.000,0.002,-0.002,-221768
2.033705875,126594255,3.266,-9.133,-0.500,-0.002,0.002,-0.012,-222638
2.033844583,126598476,3.266,-9.133,-0.500,0.004,0.002,-0.010,-223232
2.03398975,126601697,3.266,-9.094,-0.617,0.004,0.002,-0.010,-221817
2.03412975,126605918,3.266,-9.094,-0.617,-0.008,0.002,0.010,-222301
2.03427075,126610139,3.266,-9.094,-0.617,0.000,-0.004,-0.008,-223338
2.034414625,126613359,3.266,-9.094,-0.617,0.004,0.002,-0.010,-223667
2.03456525,126618580,3.266,-9.094,-0.617,-0.002,-0.006,-0.012,-222476
2.034708875,126623801,3.266,-9.094,-0.617,0.004,0.014,0.002,-222783
2.034853833,126629022,3.266,-9.176,-0.539,0.004,0.014,0.002,-222371
2.034999042,126631243,3.266,-9.176,-0.539,-0.010,0.004,-0.004,-223473
2.035143958,126636464,3.266,-9.176,-0.539,-0.004,-0.010,-0.010,-222266
2.035270042,126640685,3.266,-9.176,-0.539,0.004,0.004,0.004,-222995
2.035402083,126645906,3.266,-9.176,-0.539,-0.008,-0.010,0.004,-222417
2.03553725,126650129,3.266,-9.176,-0.539,0.000,0.000,-0.008,-223291
2.035666833,126655350,3.266,-9.094,-0.656,0.000,0.000,-0.008,-222977
2.03579475,126657571,3.266,-9.094,-0.656,0.010,0.002,-0.012,-222740
2.035928958,126661792,3.266,-9.094,-0.656,0.000,-0.004,-0.002,-223021
2.036061208,126666013,3.266,-9.094,-0.656,0.000,0.006,-0.002,-222672
2.036189208,126670234,3.266,-9.094,-0.656,-0.004,0.000,0.012,-222353
2.036330708,126675455,3.266,-9.094,-0.656,-0.010,0.002,0.002,-222785
2.036465083,126679676,3.266,-9.094,-0.656,0.002,0.002,0.000,-223231
2.036601333,126683896,3.227,-9.137,-0.617,0.002,0.002,0.000,-222953
2.036723583,126687117,3.227,-9.137,-0.617,0.004,0.000,0.010,-222310
2.0368655,126692337,3.227,-9.137,-0.617,0.008,-0.002,0.004,-222497
2.036988,126697558,3.227,-9.137,-0.617,0.004,0.004,0.006,-222873
2.037117792,126701779,3.227,-9.137,-0.617,-0.006,0.000,-0.002,-222520
2.037259,126706000,3.227,-9.137,-0.617,0.010,-0.004,-0.008,-221803
2.037385458,126710221,3.227,-9.137,-0.617,-0.002,0.012,0.006,-223213
2.037529042,126714442,3.266,-9.133,-0.578,-0.002,0.012,0.006,-221813
2.037653125,126717663,3.266,-9.133,-0.578,0.000,0.006,-0.010,-221774
2.037790792,126723885,3.266,-9.133,-0.578,-0.008,-0.004,0.002,-222162
2.037919583,126729105,3.266,-9.133,-0.578,-0.008,-0.004,0.002,-223228
2.03806,126733326,3.266,-9.133,-0.578,0.000,-0.004,-0.006,-222143
2.038182833,126738547,3.266,-9.133,-0.578,0.008,0.004,0.012,-221788
2.038313042,126743768,3.266,-9.133,-0.578,-0.002,-0.004,0.004,-223551
2.03845075,126747989,3.266,-9.133,-0.539,-0.002,-0.004,0.004,-222381
2.038580125,126750210,3.266,-9.133,-0.539,0.006,0.000,-0.008,-223188
2.038708042,126756431,3.266,-9.133,-0.539,-0.008,0.004,0.002,-223309
2.038831833,126760652,3.266,-9.133,-0.539,0.010,0.008,-0.006,-223027
2.0389675,126764873,3.266,-9.133,-0.539,-0.006,-0.006,0.002,-222553
2.039090792,126769095,3.266,-9.133,-0.539,0.004,0.002,0.000,-222326
2.039216958,126773315,3.305,-9.176,-0.539,0.004,0.002,0.000,-222994
2.039379417,126776536,3.305,-9.176,-0.539,0.008,0.002,0.000,-222893
2.039507458,126781756,3.305,-9.176,-0.539,-0.010,0.006,0.010,-222333
2.039774625,126785977,3.305,-9.176,-0.539,0.004,-0.002,-0.010,-221763
2.039899333,126790198,3.305,-9.176,-0.539,-0.004,0.012,0.012,-222526
2.040043458,126795419,3.305,-9.176,-0.539,-0.004,-0.002,0.004,-223439
2.0401675,126799641,3.305,-9.176,-0.539,0.002,-0.006,0.002,-222833
2.040300375,126805864,3.266,-9.176,-0.617,0.002,-0.006,0.002,-222958
2.040467625,126808084,3.266,-9.176,-0.617,-0.010,-0.002,-0.010,-222954
2.040653583,126812305,3.266,-9.176,-0.617,-0.002,-0.006,0.000,-222715
2.040788,126816526,3.266,-9.176,-0.617,0.000,0.004,0.002,-221963
2.040912792,126820747,3.266,-9.176,-0.617,0.000,0.000,0.000,-221824
2.041041792,126823968,3.227,-9.172,-0.578,0.000,0.000,0.000,-222925
2.041165917,126828188,3.227,-9.172,-0.578,0.000,0.000,0.000,-223008
2.041300125,126832408,3.227,-9.172,-0.578,0.000,0.000,0.000,-221797
2.04142325,126837629,3.227,-9.172,-0.578,0.000,0.000,0.000,-222693
2.0415535,126841850,3.227,-9.172,-0.578,0.000,0.000,0.000,-223267
2.041684708,126846070,3.227,-9.172,-0.578,0.000,0.000,0.000,-222872
2.041810292,126849290,3.266,-9.176,-0.617,0.000,0.000,0.000,-222166
2.041941708,126851511,3.266,-9.176,-0.617,0.000,0.000,0.000,-222750
2.042066708,126856731,3.266,-9.176,-0.617,0.000,0.000,0.000,-222732
2.042195542,126860951,3.266,-9.176,-0.617,0.000,0.000,0.000,-223127
2.0423195,126866171,3.266,-9.176,-0.617,0.000,0.000,0.000,-222169
2.042443708,126870391,3.266,-9.176,-0.617,0.000,0.000,0.000,-222196
2.042836042,126876611,3.266,-9.176,-0.617,0.000,0.000,0.000,-222813
2.042962792,126879831,3.266,-9.133,-0.539,0.000,0.000,0.000,-222017
2.043089083,126884053,3.266,-9.133,-0.539,0.000,0.000,0.000,-223069
2.04320325,126888273,3.266,-9.133,-0.578,0.000,0.000,0.000,-222484
2.043319958,126890494,3.266,-9.133,-0.578,0.000,0.000,0.000,-221960
2.043436833,126894715,3.266,-9.133,-0.578,0.000,0.000,0.000,-223258
2.043556542,126898935,3.266,-9.133,-0.578,0.000,0.000,0.000,-223050
2.043685875,126903155,3.266,-9.133,-0.578,0.000,0.000,0.000,-221802
2.043804833,126907375,3.266,-9.133,-0.578,0.000,0.000,0.000,-222520
2.043923042,126911596,3.266,-9.133,-0.578,0.000,0.000,0.000,-222119
2.04403725,126915816,3.227,-9.137,-0.617,0.000,0.000,0.000,-222750
2.044148292,126918036,3.227,-9.137,-0.617,0.000,0.000,0.000,-222272
2.044270083,126922256,3.227,-9.137,-0.617,0.000,0.000,0.000,-222799
2.044380833,126926477,3.227,-9.137,-0.617,0.000,0.000,0.000,-222388
2.044502958,126930697,3.227,-9.137,-0.617,0.000,0.000,0.000,-221850
2.044614292,126935917,3.227,-9.137,-0.617,0.000,0.000,0.000,-222164
2.044731083,126940138,3.266,-9.133,-0.578,0.000,0.000,0.000,-222780
2.04484775,126942358,3.266,-9.133,-0.578,0.000,0.000,0.000,-222671
2.044959083,126947578,3.266,-9.133,-0.578,0.000,0.000,0.000,-223227
2.045086,126951799,3.266,-9.133,-0.578,0.000,0.000,0.000,-222074
2.045198125,126956020,3.266,-9.133,-0.578,0.000,0.000,0.000,-222234
2.045318333,126960240,3.266,-9.133,-0.578,0.000,0.000,0.000,-223137
2.045428625,126964460,3.266,-9.133,-0.578,0.000,0.000,0.000,-222337
2.045547375,126969681,3.227,-9.172,-0.578,0.000,0.000,0.000,-221602
2.045721708,126971901,3.227,-9.172,-0.578,0.000,0.000,0.000,-222473
2.045835792,126977122,3.227,-9.172,-0.578,0.000,0.000,0.000,-223276
2.045955125,126981343,3.227,-9.172,-0.578,0.000,0.000,0.000,-223226
2.046066042,126985563,3.227,-9.172,-0.578,0.000,0.000,0.000,-222546
2.046185625,126989784,3.227,-9.172,-0.578,0.000,0.000,0.000,-222751
2.046296792,126994005,3.227,-9.172,-0.578,0.000,0.000,0.000,-222629
2.046407917,126998226,3.305,-9.133,-0.578,0.000,0.000,0.000,-222381
2.046574917,127000446,3.305,-9.133,-0.578,0.000,0.000,0.000,-222999
2.046688542,127006667,3.305,-9.133,-0.578,0.000,0.000,0.000,-223009
2.046804667,127010889,3.305,-9.133,-0.578,0.000,0.000,0.000,-223069
2.046922125,127015110,3.305,-9.133,-0.578,0.000,0.000,0.000,-222057
2.047088042,127019330,3.305,-9.133,-0.578,0.000,0.000,0.000,-222086
2.047206625,127024551,3.305,-9.133,-0.578,0.000,0.000,0.000,-223436
2.047320083,127028771,3.266,-9.176,-0.539,0.000,0.000,0.000,-222407
2.047435833,127031992,3.266,-9.176,-0.539,0.000,0.000,0.000,-222530
2.047547583,127038213,3.266,-9.176,-0.539,0.000,0.000,0.000,-221655
2.047664292,127042433,3.266,-9.176,-0.539,0.000,0.000,0.000,-223035
2.047779,127046654,3.266,-9.176,-0.539,0.000,0.000,0.000,-222342
2.047894708,127051876,3.266,-9.176,-0.539,0.000,0.000,0.000,-222384
2.048006792,127059096,3.266,-9.176,-0.539,0.000,0.000,0.000,-223175
2.048118292,127062318,3.305,-9.094,-0.578,0.000,0.000,0.000,-222487
2.048234292,127064539,3.305,-9.094,-0.578,0.000,0.000,0.000,-222511
2.048349083,127069760,3.305,-9.094,-0.578,0.000,0.000,0.000,-222794
2.048465875,127073980,3.305,-9.094,-0.578,0.000,0.000,0.000,-223464
2.048577667,127079200,3.305,-9.094,-0.578,0.000,0.000,0.000,-223262
2.048694083,127084420,3.305,-9.094,-0.578,0.000,0.000,0.000,-222428
2.048805292,127089641,3.227,-9.098,-0.656,0.000,0.000,0.000,-222035
2.048917583,127092861,3.227,-9.098,-0.656,0.000,0.000,0.000,-222162
2.049032458,127099082,3.227,-9.098,-0.656,0.000,0.000,0.000,-222470
2.049136167,127103303,3.227,-9.098,-0.656,0.000,0.000,0.000,-222456
2.049244042,127107524,3.227,-9.098,-0.656,0.000,0.000,0.000,-222818
2.049346208,127111745,3.227,-9.098,-0.656,0.000,0.000,0.000,-222337
2.049457333,127116965,3.227,-9.098,-0.656,0.000,0.000,0.000,-221966
2.0495605,127121186,3.266,-9.094,-0.539,0.000,0.000,0.000,-221990
2.049663208,127124406,3.266,-9.094,-0.539,0.000,0.000,0.000,-223085
2.049775,127129627,3.266,-9.094,-0.539,0.000,0.000,0.000,-222567
2.049880667,127134847,3.266,-9.094,-0.539,0.000,0.000,0.000,-221221
2.04999025,127139068,3.266,-9.094,-0.539,0.000,0.000,0.000,-222048
2.050094625,127143288,3.266,-9.094,-0.539,0.000,0.000,0.000,-223827
2.050234292,127147508,3.266,-9.094,-0.539,0.000,0.000,0.000,-222197
2.050348458,127151728,3.227,-9.172,-0.578,0.000,0.000,0.000,-222920
2.050457167,127154948,3.227,-9.172,-0.578,0.000,0.000,0.000,-221956
2.050565125,127160169,3.227,-9.172,-0.578,0.000,0.000,0.000,-223132
2.050676,127164390,3.227,-9.172,-0.578,0.000,0.000,0.000,-223188
2.050783083,127168610,3.227,-9.172,-0.578,0.000,0.000,0.000,-222358
2.050885417,127172831,3.227,-9.172,-0.578,0.000,0.000,0.000,-223572
2.050991833,127178052,3.227,-9.172,-0.578,0.000,0.000,0.000,-223087
2.051094542,127182272,3.266,-9.133,-0.578,0.000,0.000,0.000,-222247
2.051198542,127185493,3.266,-9.133,-0.578,0.000,0.000,0.000,-222183
2.051304542,127191713,3.266,-9.133,-0.578,0.000,0.000,0.000,-222782
2.051407,127195936,3.266,-9.133,-0.578,0.000,0.000,0.000,-222658
2.051513292,127200157,3.266,-9.133,-0.578,0.000,0.000,0.000,-221640
2.051615333,127204378,3.266,-9.133,-0.578,0.000,0.000,0.000,-221720
2.05172325,127209598,3.266,-9.133,-0.578,0.000,0.000,0.000,-222849
2.051831542,127213819,3.227,-9.172,-0.656,0.000,0.000,0.000,-222338
2.051934125,127217039,3.227,-9.172,-0.656,0.000,0.000,0.000,-221794
2.052044667,127223259,3.227,-9.172,-0.656,0.000,0.000,0.000,-221786
2.052146375,127227480,3.227,-9.172,-0.656,0.000,0.000,0.000,-222998
2.052252333,127231701,3.227,-9.172,-0.656,0.000,0.000,0.000,-222145
2.052354625,127236922,3.227,-9.172,-0.656,0.000,0.000,0.000,-222444
2.052461208,127241143,3.227,-9.172,-0.656,0.000,0.000,0.000,-222923
2.052564167,127245364,3.266,-9.094,-0.539,0.000,0.000,0.000,-222192
2.052672917,127248584,3.266,-9.094,-0.539,0.000,0.000,0.000,-223287
2.052781833,127254804,3.266,-9.094,-0.539,0.000,0.000,0.000,-222563
2.052885542,127260024,3.266,-9.094,-0.539,0.000,0.000,0.000,-222574
2.052994167,127264244,3.266,-9.094,-0.539,0.000,0.000,0.000,-222447
2.053113458,127268465,3.266,-9.094,-0.539,0.000,0.000,0.000,-222098
2.053239792,127272686,3.266,-9.094,-0.539,0.000,0.000,0.000,-222627
2.053349125,127277906,3.227,-9.137,-0.617,0.000,0.000,0.000,-223582
2.05345275,127281127,3.227,-9.137,-0.617,0.000,0.000,0.000,-221947
2.053571167,127286348,3.227,-9.137,-0.617,0.000,0.000,0.000,-222034
2.053673583,127290569,3.227,-9.137,-0.617,0.000,0.000,0.000,-222460
2.053852125,127293789,3.227,-9.137,-0.617,0.000,0.000,0.000,-222908
2.053954917,127299009,3.227,-9.137,-0.617,0.000,0.000,0.000,-223041
2.054063917,127303229,3.227,-9.137,-0.617,0.000,0.000,0.000,-222263
2.054406458,127309450,3.266,-9.176,-0.617,0.000,0.000,0.000,-222146
2.054518958,127311671,3.266,-9.176,-0.617,0.000,0.000,0.000,-222725
2.0546305,127316892,3.266,-9.176,-0.617,0.000,0.000,0.000,-223291
2.054746583,127322113,3.266,-9.176,-0.617,0.000,0.000,0.000,-222260
2.054858958,127327333,3.266,-9.133,-0.578,0.000,0.000,0.000,-222773
2.054964167,127329554,3.266,-9.133,-0.578,0.000,0.000,0.000,-222473
2.055073458,127334775,3.266,-9.133,-0.578,0.000,0.000,0.000,-222859
2.055177708,127338995,3.266,-9.133,-0.578,0.000,0.000,0.000,-223236
2.05528025,127342216,3.266,-9.133,-0.578,0.000,0.000,0.000,-222427
2.0553935,127346436,3.266,-9.133,-0.578,0.000,0.000,0.000,-222276
2.055499167,127351657,3.266,-9.133,-0.578,0.000,0.000,0.000,-222281
2.055607583,127356878,3.266,-9.176,-0.578,0.000,0.000,0.000,-221875
2.055710458,127359098,3.266,-9.176,-0.578,0.000,0.000,0.000,-222451
2.055812375,127364318,3.266,-9.176,-0.578,0.000,0.000,0.000,-222263
2.0559315,127368538,3.266,-9.176,-0.578,0.000,0.000,0.000,-221978
2.05604175,127372759,3.266,-9.176,-0.578,0.000,0.000,0.000,-222574
2.056149833,127376979,3.266,-9.176,-0.617,0.000,0.000,0.000,-222470
2.056255792,127379199,3.266,-9.176,-0.617,0.000,0.000,0.000,-222650
2.05636825,127384419,3.266,-9.176,-0.617,0.000,0.000,0.000,-221842
2.056473583,127388640,3.266,-9.176,-0.617,0.000,0.000,0.000,-222200
2.056586292,127392860,3.266,-9.176,-0.617,0.000,0.000,0.000,-222716
2.056700583,127398083,3.266,-9.176,-0.617,0.000,0.000,0.000,-222696
2.056803167,127402303,3.266,-9.176,-0.617,0.000,0.000,0.000,-222558
2.056909542,127406523,3.266,-9.176,-0.539,0.000,0.000,0.000,-222386
2.057005833,127409743,3.266,-9.176,-0.539,0.000,0.000,0.000,-223618
2.057111458,127415963,3.266,-9.176,-0.539,0.000,0.000,0.000,-222779
2.05720825,127420184,3.266,-9.176,-0.539,0.000,0.000,0.000,-222104
2.057315167,127424405,3.266,-9.176,-0.539,0.000,0.000,0.000,-222698
2.057420875,127429626,3.266,-9.176,-0.539,0.000,0.000,0.000,-222503
2.057521917,127433846,3.266,-9.176,-0.539,0.000,0.000,0.000,-221805
2.057626375,127438066,3.266,-9.172,-0.691,0.000,0.000,0.000,-221869
2.057722417,127440286,3.266,-9.172,-0.691,0.000,0.000,0.000,-222493
2.057820792,127444506,3.266,-9.172,-0.691,0.000,0.000,0.000,-223965
2.0579195,127449726,3.266,-9.094,-0.578,0.000,0.000,0.000,-222796
2.058018792,127452947,3.266,-9.094,-0.578,0.000,0.000,0.000,-222739
2.058122667,127459168,3.266,-9.094,-0.578,0.000,0.000,0.000,-223359
2.058219167,127463388,3.266,-9.094,-0.578,0.000,0.000,0.000,-222305
2.058325792,127467609,3.266,-9.094,-0.578,0.000,0.000,0.000,-222186
2.058422375,127471830,3.266,-9.094,-0.578,0.000,0.000,0.000,-222430
2.058525292,127477051,3.266,-9.094,-0.578,0.000,0.000,0.000,-223153
2.058634542,127481271,3.227,-9.098,-0.617,0.000,0.000,0.000,-222401
2.0587325,127484491,3.227,-9.098,-0.617,0.000,0.000,0.000,-222269
2.058836,127489711,3.227,-9.098,-0.617,0.000,0.000,0.000,-222245
2.058933708,127493932,3.227,-9.098,-0.617,0.000,0.000,0.000,-221908
2.059038833,127499153,3.227,-9.098,-0.617,0.000,0.000,0.000,-222614
2.05913475,127503374,3.227,-9.098,-0.617,0.000,0.000,0.000,-222546
2.059235875,127507595,3.227,-9.098,-0.617,0.000,0.000,0.000,-222023
2.059337417,127511816,3.266,-9.094,-0.617,0.000,0.000,0.000,-222664
2.059433792,127515036,3.266,-9.094,-0.617,0.000,0.000,0.000,-222409
2.059541,127520256,3.266,-9.094,-0.617,0.000,0.000,0.000,-222487
2.059638417,127524476,3.266,-9.094,-0.617,0.000,0.000,0.000,-223490
2.059741208,127528696,3.266,-9.094,-0.617,0.000,0.000,0.000,-222510
2.059889792,127532916,3.266,-9.094,-0.617,0.000,0.000,0.000,-222119
2.05998625,127538137,3.266,-9.094,-0.617,0.000,0.000,0.000,-223222
2.060087917,127542357,3.266,-9.133,-0.617,0.000,0.000,0.000,-222696
2.06018425,127544577,3.266,-9.133,-0.617,0.000,0.000,0.000,-223384
2.06028575,127549797,3.266,-9.133,-0.617,0.000,0.000,0.000,-222142
2.060381625,127554017,3.266,-9.133,-0.617,0.000,0.000,0.000,-222385
2.060480875,127560237,3.266,-9.133,-0.617,0.000,0.000,0.000,-222410
2.06058025,127565458,3.266,-9.133,-0.617,0.000,0.000,0.000,-223618
2.060681667,127569679,3.266,-9.133,-0.617,0.000,0.000,0.000,-222077
2.060791333,127573900,3.227,-9.137,-0.617,0.000,0.000,0.000,-222546
2.060888208,127577120,3.227,-9.137,-0.617,0.000,0.000,0.000,-222748
2.060988792,127583341,3.227,-9.137,-0.617,0.000,0.000,0.000,-222083
2.061085,127587561,3.227,-9.137,-0.617,0.000,0.000,0.000,-222367
2.061180708,127591781,3.227,-9.137,-0.617,0.000,0.000,0.000,-223479
2.061282083,127597002,3.227,-9.137,-0.617,0.000,0.000,0.000,-222720
2.061377583,127601222,3.227,-9.137,-0.617,0.000,0.000,0.000,-221984
2.061478708,127605442,3.227,-9.137,-0.578,0.000,0.000,0.000,-222765
2.061576167,127608662,3.227,-9.137,-0.578,0.000,0.000,0.000,-222944
2.061679708,127613883,3.227,-9.137,-0.578,0.000,0.000,0.000,-221744
2.061775542,127618104,3.227,-9.137,-0.578,0.000,0.000,0.000,-222728
2.061874,127622324,3.227,-9.137,-0.578,0.000,0.000,0.000,-223154
2.061975167,127626545,3.227,-9.137,-0.578,0.000,0.000,0.000,-223300
2.062072625,127630765,3.227,-9.137,-0.578,0.000,0.000,0.000,-222494
2.062177542,127633986,3.227,-9.137,-0.539,0.000,0.000,0.000,-222621
2.062273292,127637207,3.227,-9.137,-0.539,0.000,0.000,0.000,-221616
2.06237375,127642428,3.227,-9.137,-0.539,0.000,0.000,0.000,-222798
2.0624695,127646648,3.227,-9.137,-0.539,0.000,0.000,0.000,-222233
2.062565792,127649869,3.227,-9.137,-0.539,0.000,0.000,0.000,-222253
2.062666458,127654090,3.227,-9.137,-0.539,0.000,0.000,0.000,-222703
2.062762,127658310,3.227,-9.137,-0.539,0.000,0.000,0.000,-222775
2.062866,127662531,3.266,-9.133,-0.578,0.000,0.000,0.000,-222954
2.062962167,127664751,3.266,-9.133,-0.578,0.000,0.000,0.000,-221561
2.063068583,127669972,3.266,-9.133,-0.578,0.000,0.000,0.000,-222311
2.063179542,127674193,3.266,-9.133,-0.578,0.000,0.000,0.000,-223027
2.063308583,127678413,3.266,-9.133,-0.578,0.000,0.000,0.000,-222723
2.063408583,127682634,3.266,-9.133,-0.578,0.000,0.000,0.000,-223070
2.063505042,127687854,3.266,-9.133,-0.578,0.000,0.000,0.000,-222163
2.063606583,127692075,3.266,-9.133,-0.578,0.000,0.000,0.000,-222873
2.063703667,127695295,3.266,-9.133,-0.578,0.000,0.000,0.000,-222149
2.063816,127701516,3.266,-9.133,-0.578,0.000,0.000,0.000,-222026
2.063913667,127705737,3.266,-9.133,-0.578,0.000,0.000,0.000,-221915
2.064052917,127708958,3.266,-9.133,-0.578,0.000,0.000,0.000,-222882
2.064157708,127713179,3.266,-9.133,-0.578,0.000,0.000,0.000,-222740
2.0644245,127717399,3.266,-9.133,-0.578,0.000,0.000,0.000,-222521
2.064527042,127721619,3.266,-9.176,-0.617,0.000,0.000,0.000,-222190
2.0646235,127724840,3.266,-9.176,-0.617,0.000,0.000,0.000,-223372
2.067089583,127730060,3.266,-9.176,-0.617,0.000,0.000,0.000,-222013
2.067183875,127734280,3.266,-9.176,-0.617,0.000,0.000,0.000,-222751
2.067280958,127739500,3.266,-9.176,-0.617,0.000,0.000,0.000,-222703
2.067387125,127743721,3.266,-9.176,-0.617,0.000,0.000,0.000,-223538
2.067483292,127748941,3.266,-9.176,-0.617,0.000,0.000,0.000,-222382
2.067591875,127753162,3.266,-9.094,-0.539,0.000,0.000,0.000,-222080
2.067685583,127756382,3.266,-9.094,-0.539,0.000,0.000,0.000,-222869
2.067779042,127761602,3.266,-9.094,-0.539,0.000,0.000,0.000,-223363
2.067883833,127766823,3.266,-9.094,-0.539,0.000,0.000,0.000,-222890
2.067976958,127770044,3.227,-9.172,-0.617,0.000,0.000,0.000,-221611
2.068078667,127772264,3.227,-9.172,-0.617,0.000,0.000,0.000,-222278
2.068172167,127777485,3.227,-9.172,-0.617,0.000,0.000,0.000,-223178
2.068270583,127781705,3.227,-9.172,-0.617,0.000,0.000,0.000,-222350
2.068364375,127786926,3.227,-9.172,-0.617,0.000,0.000,0.000,-222312
2.068456542,127791146,3.227,-9.172,-0.617,0.000,0.000,0.000,-222922
2.068565083,127797366,3.227,-9.172,-0.617,0.000,0.000,0.000,-222662
2.068658292,127801587,3.266,-9.133,-0.617,0.000,0.000,0.000,-222322
2.068759,127804807,3.266,-9.133,-0.617,0.000,0.000,0.000,-222307
2.068852667,127812027,3.266,-9.133,-0.617,0.000,0.000,0.000,-223185
2.0689545,127816247,3.266,-9.133,-0.617,0.000,0.000,0.000,-222751
2.069047958,127819468,3.266,-9.133,-0.617,0.000,0.000,0.000,-222305
2.06914125,127824688,3.266,-9.133,-0.617,0.000,0.000,0.000,-222376
2.069242792,127829909,3.266,-9.133,-0.617,0.000,0.000,0.000,-222641
2.0693515,127835130,3.266,-9.176,-0.539,0.000,0.000,0.000,-222304
2.069455958,127838350,3.266,-9.176,-0.539,0.000,0.000,0.000,-222429
2.069561042,127844570,3.266,-9.176,-0.539,0.000,0.000,0.000,-223320
2.06965825,127848791,3.266,-9.176,-0.539,0.000,0.000,0.000,-222136
2.069751708,127853012,3.266,-9.176,-0.539,0.000,0.000,0.000,-222357
2.069845167,127859232,3.266,-9.176,-0.539,0.000,0.000,0.000,-223381
2.069943417,127863452,3.266,-9.176,-0.539,0.000,0.000,0.000,-221644
2.070036583,127867672,3.227,-9.137,-0.539,0.000,0.000,0.000,-223063
2.07013725,127869892,3.227,-9.137,-0.539,0.000,0.000,0.000,-222392
2.070230667,127874113,3.227,-9.137,-0.539,0.000,0.000,0.000,-223226
2.070333,127879334,3.227,-9.137,-0.539,0.000,0.000,0.000,-223027
2.070427458,127882554,3.227,-9.137,-0.539,0.000,0.000,0.000,-222876
2.070526417,127887774,3.227,-9.137,-0.539,0.000,0.000,0.000,-222538
2.070626792,127891995,3.227,-9.137,-0.539,0.000,0.000,0.000,-222092
2.07071975,127896216,3.227,-9.172,-0.656,0.000,0.000,0.000,-222835
2.07081725,127899436,3.227,-9.172,-0.656,0.000,0.000,0.000,-221966
2.070907458,127904657,3.227,-9.172,-0.656,0.000,0.000,0.000,-222237
2.070996875,127908879,3.227,-9.172,-0.656,0.000,0.000,0.000,-222964
2.071085292,127913100,3.227,-9.172,-0.656,0.000,0.000,0.000,-223069
2.0711765,127918320,3.227,-9.172,-0.656,0.000,0.000,0.000,-222698
2.071264667,127922541,3.227,-9.172,-0.656,0.000,0.000,0.000,-222636
2.071355458,127926761,3.227,-9.137,-0.539,0.000,0.000,0.000,-222613
2.071443083,127928982,3.227,-9.137,-0.539,0.000,0.000,0.000,-223352
2.071539583,127933202,3.227,-9.137,-0.539,0.000,0.000,0.000,-221866
2.071631125,127937423,3.227,-9.137,-0.539,0.000,0.000,0.000,-223221
2.071719333,127941644,3.227,-9.137,-0.539,0.000,0.000,0.000,-223223
2.071810208,127946864,3.227,-9.137,-0.539,0.000,0.000,0.000,-222300
2.0718985,127952084,3.227,-9.137,-0.539,0.000,0.000,0.000,-222105
2.071988583,127957304,3.266,-9.176,-0.617,0.000,0.000,0.000,-222555
2.072077333,127960524,3.266,-9.176,-0.617,0.000,0.000,0.000,-223219
2.072165875,127965744,3.266,-9.176,-0.617,0.000,0.000,0.000,-222901
2.072254625,127969965,3.266,-9.176,-0.617,0.000,0.000,0.000,-222096
2.0723455,127975185,3.266,-9.176,-0.617,0.000,0.000,0.000,-223629
2.076369875,127979406,3.266,-9.176,-0.617,0.000,0.000,0.000,-222225
2.079593375,127982627,3.266,-9.176,-0.617,0.000,0.000,0.000,-222562
2.083820667,127986848,3.266,-9.133,-0.617,0.000,0.000,0.000,-222108
2.087035458,127990069,3.266,-9.133,-0.617,0.000,0.000,0.000,-222900
2.093264042,127996290,3.266,-9.133,-0.617,0.000,0.000,0.000,-222726
2.0974395,128000511,3.266,-9.133,-0.617,0.000,0.000,0.000,-222298
2.10169775,128004731,3.266,-9.133,-0.617,0.000,0.000,0.000,-222222
2.106896917,128009951,3.266,-9.133,-0.617,0.000,0.000,0.000,-223013
2.11113575,128014172,3.266,-9.133,-0.617,0.000,0.000,0.000,-222516
2.115372042,128018392,3.266,-9.133,-0.617,0.000,0.000,0.000,-222339
2.11857975,128021612,3.266,-9.133,-0.617,0.000,0.000,0.000,-222889
2.124824708,128027832,3.266,-9.133,-0.617,0.000,0.000,0.000,-223033
2.129042708,128032053,3.266,-9.133,-0.617,0.000,0.000,0.000,-222345
2.134256042,128037273,3.266,-9.133,-0.617,0.000,0.000,0.000,-222058
2.139488125,128042494,3.266,-9.133,-0.617,0.000,0.000,0.000,-222517
2.144849417,128047714,3.266,-9.133,-0.578,0.000,0.000,0.000,-223122
2.147923333,128050934,3.266,-9.133,-0.578,0.000,0.000,0.000,-222363
2.154162917,128057155,3.266,-9.133,-0.578,0.000,0.000,0.000,-222843
2.158366917,128061376,3.266,-9.133,-0.578,0.000,0.000,0.000,-222354
2.163612333,128066597,3.266,-9.133,-0.578,0.000,0.000,0.000,-222736
2.167816667,128070818,3.266,-9.133,-0.578,0.000,0.000,0.000,-222554
2.174085042,128077039,3.266,-9.133,-0.578,0.000,0.000,0.000,-222879
2.178157083,128081260,3.266,-9.133,-0.578,0.000,0.000,0.000,-222592
2.180456667,128083480,3.266,-9.133,-0.578,0.000,0.000,0.000,-223291
2.184738083,128087700,3.266,-9.133,-0.578,0.000,0.000,0.000,-221675
2.188924625,128091921,3.266,-9.133,-0.578,0.000,0.000,0.000,-222503
2.194101333,128097142,3.266,-9.133,-0.578,0.000,0.000,0.000,-222022
2.198359917,128101362,3.266,-9.133,-0.578,0.000,0.000,0.000,-222505
2.201570292,128104582,3.266,-9.133,-0.578,0.000,0.000,0.000,-222491
2.205775583,128108803,3.266,-9.094,-0.617,0.000,0.000,0.000,-222856
2.208997958,128112024,3.266,-9.094,-0.617,0.000,0.000,0.000,-222802
2.215269667,128118244,3.266,-9.094,-0.617,0.000,0.000,0.000,-221480
2.219487833,128122464,3.266,-9.094,-0.617,0.000,0.000,0.000,-221971
2.223723958,128126684,3.266,-9.094,-0.617,0.000,0.000,0.000,-222461
2.227916542,128130905,3.266,-9.094,-0.617,0.000,0.000,0.000,-222070
2.232115917,128135126,3.266,-9.094,-0.617,0.000,0.000,0.000,-222160
2.237307667,128140346,3.266,-9.133,-0.617,0.000,0.000,0.000,-223189
2.24061675,128143566,3.266,-9.133,-0.617,0.000,0.000,0.000,-223004
2.24588225,128148787,3.266,-9.133,-0.617,0.000,0.000,0.000,-222809
2.2499045,128153008,3.266,-9.133,-0.617,0.000,0.000,0.000,-222453
2.25525025,128158229,3.266,-9.133,-0.617,0.000,0.000,0.000,-222042
2.259527458,128162450,3.266,-9.133,-0.617,0.000,0.000,0.000,-222875
2.263675083,128166671,3.266,-9.133,-0.617,0.000,0.000,0.000,-222543
2.26892175,128171892,3.227,-9.137,-0.539,0.000,0.000,0.000,-222373
2.272150708,128175112,3.227,-9.137,-0.539,0.000,0.000,0.000,-223099
2.278357292,128181333,3.227,-9.137,-0.539,0.000,0.000,0.000,-222372
2.282632292,128185554,3.227,-9.137,-0.539,0.000,0.000,0.000,-222776
2.286981042,128189774,3.227,-9.137,-0.539,0.000,0.000,0.000,-222487
2.291072,128193994,3.227,-9.137,-0.539,0.000,0.000,0.000,-222866
2.296323208,128199215,3.227,-9.137,-0.539,0.000,0.000,0.000,-222191
2.300459583,128203436,3.266,-9.176,-0.617,0.000,0.000,0.000,-222226
2.303808,128206657,3.266,-9.176,-0.617,0.000,0.000,0.000,-223067
2.308920333,128211877,3.266,-9.176,-0.617,0.000,0.000,0.000,-223128
2.314320583,128217098,3.266,-9.176,-0.617,0.000,0.000,0.000,-223869
2.318436417,128221319,3.266,-9.176,-0.617,0.000,0.000,0.000,-221986
2.321746375,128224540,3.266,-9.176,-0.617,0.000,0.000,0.000,-222680
2.325891875,128228761,3.266,-9.133,-0.578,0.000,0.000,0.000,-223469
2.327982708,128230981,3.266,-9.133,-0.578,0.000,0.000,0.000,-222334
2.332389375,128235201,3.266,-9.133,-0.578,0.000,0.000,0.000,-221866
2.337416208,128240421,3.266,-9.133,-0.578,0.000,0.000,0.000,-222550
2.341690042,128244641,3.266,-9.133,-0.578,0.000,0.000,0.000,-223249
2.345862625,128248861,3.266,-9.133,-0.578,0.000,0.000,0.000,-222771
2.349567583,128252082,3.266,-9.133,-0.578,0.000,0.000,0.000,-222428
2.354551583,128257302,3.227,-9.133,-0.691,0.000,0.000,0.000,-222921
2.356686875,128259522,3.227,-9.133,-0.691,0.000,0.000,0.000,-222076
2.36098375,128263743,3.227,-9.133,-0.691,0.000,0.000,0.000,-221927
2.365036375,128267964,3.227,-9.133,-0.691,0.000,0.000,0.000,-221840
2.3692985,128272185,3.227,-9.133,-0.691,0.000,0.000,0.000,-222701
2.374516708,128277406,3.227,-9.133,-0.691,0.000,0.000,0.000,-222782
2.378692458,128281626,3.227,-9.133,-0.691,0.000,0.000,0.000,-222513
2.383211167,128285847,3.266,-9.176,-0.500,0.000,0.000,0.000,-222219
2.386277667,128289068,3.266,-9.176,-0.500,0.000,0.000,0.000,-222737
2.392337,128295288,3.266,-9.176,-0.500,0.000,0.000,0.000,-223217
2.396632875,128299509,3.266,-9.176,-0.500,0.000,0.000,0.000,-222370
2.399833167,128302730,3.266,-9.176,-0.500,0.000,0.000,0.000,-222747
2.404241625,128306951,3.266,-9.176,-0.500,0.000,0.000,0.000,-222134
2.409391208,128312172,3.266,-9.176,-0.500,0.000,0.000,0.000,-223318
2.416462083,128319393,3.227,-9.137,-0.578,0.000,0.000,0.000,-222979
2.41971025,128322614,3.227,-9.137,-0.578,0.000,0.000,0.000,-223362
2.424935333,128327834,3.227,-9.137,-0.578,0.000,0.000,0.000,-223593
2.4292165,128332055,3.227,-9.137,-0.578,0.000,0.000,0.000,-222406
2.434334583,128337275,3.227,-9.137,-0.578,0.000,0.000,0.000,-222093
2.438631583,128341496,3.227,-9.137,-0.578,0.000,0.000,0.000,-222801
2.442886167,128345717,3.227,-9.137,-0.578,0.000,0.000,0.000,-223035
2.448030208,128350937,3.227,-9.137,-0.617,0.000,0.000,0.000,-221992
2.451418417,128354158,3.227,-9.137,-0.617,0.000,0.000,0.000,-222537
2.457502292,128360379,3.227,-9.137,-0.617,0.000,0.000,0.000,-223411
2.461636708,128364600,3.227,-9.137,-0.617,0.000,0.000,0.000,-222264
2.46587825,128368821,3.227,-9.137,-0.617,0.000,0.000,0.000,-222440
2.470189667,128373042,3.227,-9.137,-0.617,0.000,0.000,0.000,-222725
2.475343,128378263,3.227,-9.137,-0.617,0.000,0.000,0.000,-222595
2.47955275,128382483,3.266,-9.133,-0.656,0.000,0.000,0.000,-222079
2.482837208,128385704,3.266,-9.133,-0.656,0.000,0.000,0.000,-222461
2.489007208,128391924,3.266,-9.133,-0.656,0.000,0.000,0.000,-223556
2.493188125,128396145,3.266,-9.133,-0.656,0.000,0.000,0.000,-222725
2.497492542,128400368,3.266,-9.133,-0.656,0.000,0.000,0.000,-221929
2.502938292,128405589,3.266,-9.133,-0.656,0.000,0.000,0.000,-222275
2.507412917,128409809,3.266,-9.133,-0.656,0.000,0.000,0.000,-223049
2.51105575,128414029,3.227,-9.137,-0.539,0.000,0.000,0.000,-222845
2.51554025,128417250,3.227,-9.137,-0.539,0.000,0.000,0.000,-222097
2.520695458,128423470,3.227,-9.137,-0.539,0.000,0.000,0.000,-223227
2.524820417,128427690,3.227,-9.137,-0.539,0.000,0.000,0.000,-223144
2.528973,128431910,3.227,-9.137,-0.539,0.000,0.000,0.000,-222603
2.534201833,128437130,3.227,-9.137,-0.539,0.000,0.000,0.000,-222223
2.538839,128441350,3.227,-9.137,-0.539,0.000,0.000,0.000,-223024
2.542137042,128444571,3.266,-9.133,-0.617,0.000,0.000,0.000,-222695
2.5448165,128447791,3.266,-9.133,-0.617,0.000,0.000,0.000,-222892
2.550632167,128453011,3.266,-9.133,-0.617,0.000,0.000,0.000,-222124
2.555480083,128458232,3.266,-9.133,-0.617,0.000,0.000,0.000,-222235
2.559470083,128462453,3.266,-9.133,-0.617,0.000,0.000,0.000,-221927
2.564185083,128466673,3.266,-9.133,-0.617,0.000,0.000,0.000,-222508
2.568204917,128470894,3.266,-9.133,-0.617,0.000,0.000,0.000,-222748
2.572415792,128475115,3.266,-9.133,-0.617,0.000,0.000,0.000,-223026
2.575321917,128478336,3.266,-9.133,-0.617,0.000,0.000,0.000,-223174
2.582316958,128484557,3.266,-9.133,-0.617,0.000,0.000,0.000,-222410
2.586102542,128488778,3.266,-9.133,-0.617,0.000,0.000,0.000,-223335
2.59013175,128492999,3.266,-9.133,-0.617,0.000,0.000,0.000,-223003
2.595491083,128498220,3.266,-9.133,-0.617,0.000,0.000,0.000,-222334
2.599571083,128502440,3.266,-9.133,-0.617,0.000,0.000,0.000,-222794
2.603836125,128506660,3.305,-9.133,-0.578,0.000,0.000,0.000,-223373
2.605866875,128508880,3.305,-9.133,-0.578,0.000,0.000,0.000,-222207
2.610115417,128513100,3.305,-9.133,-0.578,0.000,0.000,0.000,-222688
2.615373333,128518320,3.305,-9.133,-0.578,0.000,0.000,0.000,-222333
2.619622708,128522541,3.305,-9.133,-0.578,0.000,0.000,0.000,-222680
2.623919708,128526762,3.305,-9.133,-0.578,0.000,0.000,0.000,-222417
2.629174542,128531983,3.305,-9.133,-0.578,0.000,0.000,0.000,-222652
2.63427375,128537204,3.266,-9.133,-0.578,0.000,0.000,0.000,-222896
2.637436,128540424,3.266,-9.133,-0.578,0.000,0.000,0.000,-223277
2.642571583,128545644,3.266,-9.133,-0.578,0.000,0.000,0.000,-222778
2.646846333,128549865,3.266,-9.133,-0.578,0.000,0.000,0.000,-222623
2.650074167,128553086,3.266,-9.133,-0.578,0.000,0.000,0.000,-222960
2.656314292,128559307,3.266,-9.133,-0.578,0.000,0.000,0.000,-222860
2.660618208,128563528,3.266,-9.133,-0.578,0.000,0.000,0.000,-222900
2.667778542,128570748,3.227,-9.172,-0.617,0.000,0.000,0.000,-222178
2.669936417,128572969,3.227,-9.172,-0.617,0.000,0.000,0.000,-221663
2.675078625,128578190,3.227,-9.172,-0.617,0.000,0.000,0.000,-222427
2.679370583,128582411,3.227,-9.172,-0.617,0.000,0.000,0.000,-222502
2.682614625,128585632,3.227,-9.172,-0.617,0.000,0.000,0.000,-223087
2.686818917,128589852,3.227,-9.172,-0.617,0.000,0.000,0.000,-222267
2.692020833,128595074,3.227,-9.172,-0.617,0.000,0.000,0.000,-222336
2.69725575,128600294,3.266,-9.133,-0.578,0.000,0.000,0.000,-222278
2.700459792,128603515,3.266,-9.133,-0.578,0.000,0.000,0.000,-222797
2.705720042,128608736,3.266,-9.133,-0.578,0.000,0.000,0.000,-223510
2.709897292,128612957,3.266,-9.133,-0.578,0.000,0.000,0.000,-223063
2.715153458,128618177,3.266,-9.133,-0.578,0.000,0.000,0.000,-222673
2.7193655,128622398,3.266,-9.133,-0.578,0.000,0.000,0.000,-222217
2.7236275,128626619,3.266,-9.133,-0.578,0.000,0.000,0.000,-222483
2.72678775,128629839,3.266,-9.176,-0.578,0.000,0.000,0.000,-222942
2.730009625,128633059,3.266,-9.176,-0.578,0.000,0.000,0.000,-222717
2.736188333,128639279,3.266,-9.176,-0.578,0.000,0.000,0.000,-222853
2.740489708,128643500,3.266,-9.176,-0.578,0.000,0.000,0.000,-222940
2.744682167,128647721,3.266,-9.176,-0.578,0.000,0.000,0.000,-222517
2.749918167,128652941,3.266,-9.176,-0.578,0.000,0.000,0.000,-222359
2.75516475,128658162,3.266,-9.176,-0.578,0.000,0.000,0.000,-222933
2.759328833,128662367,3.305,-9.133,-0.578,0.000,0.000,0.000,-222933
2.761542125,128664587,3.305,-9.133,-0.578,0.000,0.000,0.000,-222185
2.765797708,128668808,3.305,-9.133,-0.578,0.000,0.000,0.000,-222510
2.770074458,128673031,3.305,-9.133,-0.578,0.000,0.000,0.000,-222088
2.7745265,128677252,3.305,-9.133,-0.578,0.000,0.000,0.000,-223851
2.778472167,128681473,3.305,-9.133,-0.578,0.000,0.000,0.000,-222602
2.781787792,128684694,3.305,-9.133,-0.578,0.000,0.000,0.000,-222761
2.786227,128688914,3.266,-9.133,-0.539,0.000,0.000,0.000,-223050
2.78814675,128691135,3.266,-9.133,-0.539,0.000,0.000,0.000,-222577
2.794400375,128697355,3.266,-9.133,-0.539,0.000,0.000,0.000,-222964
2.798592875,128701575,3.266,-9.133,-0.539,0.000,0.000,0.000,-221929
2.802798917,128705795,3.266,-9.133,-0.539,0.000,0.000,0.000,-222803
2.807020375,128710016,3.266,-9.133,-0.539,0.000,0.000,0.000,-223038
2.811252,128714237,3.305,-9.133,-0.539,0.000,0.000,0.000,-222362
2.814461667,128717458,3.305,-9.133,-0.539,0.000,0.000,0.000,-222207
2.819724625,128722679,3.305,-9.133,-0.539,0.000,0.000,0.000,-222556
2.824907292,128727899,3.305,-9.133,-0.539,0.000,0.000,0.000,-222354
2.829208792,128732120,3.305,-9.133,-0.539,0.000,0.000,0.000,-221929
2.834383958,128737341,3.305,-9.133,-0.539,0.000,0.000,0.000,-222464
2.839633875,128742562,3.305,-9.133,-0.539,0.000,0.000,0.000,-222744
2.844316542,128746783,3.266,-9.094,-0.617,0.000,0.000,0.000,-222910
2.847027125,128750003,3.266,-9.094,-0.617,0.000,0.000,0.000,-222189
2.852268792,128755223,3.266,-9.094,-0.617,0.000,0.000,0.000,-222437
2.856525292,128759443,3.266,-9.094,-0.617,0.000,0.000,0.000,-223162
2.860650667,128763663,3.266,-9.094,-0.617,0.000,0.000,0.000,-222425
2.864940625,128767883,3.266,-9.094,-0.617,0.000,0.000,0.000,-221995
2.869113833,128772103,3.266,-9.094,-0.617,0.000,0.000,0.000,-222709
2.874374875,128777324,3.266,-9.133,-0.578,0.000,0.000,0.000,-222228
2.8775885,128780545,3.266,-9.133,-0.578,0.000,0.000,0.000,-222454
2.88285125,128785765,3.266,-9.133,-0.578,0.000,0.000,0.000,-222382
2.887043042,128789986,3.266,-9.133,-0.578,0.000,0.000,0.000,-222826
2.890608042,128793207,3.266,-9.133,-0.578,0.000,0.000,0.000,-222787
2.896526167,128799428,3.266,-9.133,-0.578,0.000,0.000,0.000,-222970
2.900687208,128803648,3.266,-9.133,-0.578,0.000,0.000,0.000,-222193
2.904957167,128807869,3.305,-9.133,-0.539,0.000,0.000,0.000,-222736
2.90714325,128810089,3.305,-9.133,-0.539,0.000,0.000,0.000,-222532
2.912382417,128815309,3.305,-9.133,-0.539,0.000,0.000,0.000,-223445
2.917576667,128820529,3.305,-9.133,-0.539,0.000,0.000,0.000,-223058
2.921866583,128824750,3.305,-9.133,-0.539,0.000,0.000,0.000,-222504
2.928015208,128830971,3.305,-9.133,-0.539,0.000,0.000,0.000,-222617
2.932382792,128835192,3.305,-9.133,-0.539,0.000,0.000,0.000,-223061
2.937124833,128839412,3.266,-9.133,-0.578,0.000,0.000,0.000,-222726
2.938677458,128841633,3.266,-9.133,-0.578,0.000,0.000,0.000,-222851
2.9439505,128846854,3.266,-9.133,-0.578,0.000,0.000,0.000,-223043
2.948643125,128850075,3.266,-9.133,-0.578,0.000,0.000,0.000,-222089
2.951391417,128854295,3.266,-9.133,-0.578,0.000,0.000,0.000,-221734
2.956744208,128859515,3.266,-9.133,-0.578,0.000,0.000,0.000,-222845
2.960790125,128863735,3.266,-9.133,-0.578,0.000,0.000,0.000,-223196
2.965133833,128867955,3.227,-9.172,-0.578,0.000,0.000,0.000,-222407
2.968542667,128871175,3.227,-9.172,-0.578,0.000,0.000,0.000,-221780
2.974731625,128877395,3.227,-9.172,-0.578,0.000,0.000,0.000,-222827
2.978669208,128881615,3.227,-9.172,-0.578,0.000,0.000,0.000,-222047
2.983479292,128885836,3.227,-9.172,-0.578,0.000,0.000,0.000,-223146
2.987130375,128890057,3.227,-9.172,-0.578,0.000,0.000,0.000,-222525
2.991398,128894277,3.227,-9.172,-0.578,0.000,0.000,0.000,-222801
2.995639958,128898497,3.266,-9.133,-0.578,0.000,0.000,0.000,-222934
2.997729542,128900717,3.266,-9.133,-0.578,0.000,0.000,0.000,-222025
3.001942875,128904937,3.266,-9.133,-0.578,0.000,0.000,0.000,-222151
3.006266208,128909157,3.266,-9.133,-0.578,0.000,0.000,0.000,-222259
3.01045525,128913377,3.266,-9.133,-0.578,0.000,0.000,0.000,-223339
3.017352458,128919597,3.266,-9.133,-0.578,0.000,0.000,0.000,-222284
3.020860167,128923817,3.266,-9.133,-0.578,0.000,0.000,0.000,-223153
3.025072125,128928038,3.266,-9.176,-0.617,0.000,0.000,0.000,-222575
3.027313542,128930259,3.266,-9.176,-0.617,0.000,0.000,0.000,-222687
3.031564042,128934480,3.266,-9.176,-0.617,0.000,0.000,0.000,-221730
3.03574,128938701,3.266,-9.176,-0.617,0.000,0.000,0.000,-222705
3.040013042,128942922,3.266,-9.176,-0.617,0.000,0.000,0.000,-222512
3.045210042,128948143,3.266,-9.176,-0.617,0.000,0.000,0.000,-222302
3.049381708,128952364,3.266,-9.176,-0.617,0.000,0.000,0.000,-222101
3.054612375,128957584,3.305,-9.176,-0.617,0.000,0.000,0.000,-222155
3.0568145,128959805,3.305,-9.176,-0.617,0.000,0.000,0.000,-223278
3.061023333,128964027,3.305,-9.176,-0.617,0.000,0.000,0.000,-222678
3.065255958,128968248,3.305,-9.176,-0.617,0.000,0.000,0.000,-222761
3.069421333,128972468,3.305,-9.176,-0.617,0.000,0.000,0.000,-222286
3.074638417,128977689,3.305,-9.176,-0.617,0.000,0.000,0.000,-223074
3.078858583,128981909,3.305,-9.176,-0.617,0.000,0.000,0.000,-222477
3.082116333,128985130,3.305,-9.176,-0.617,0.000,0.000,0.000,-222120
3.088333042,128991350,3.305,-9.176,-0.617,0.000,0.000,0.000,-222552
3.093549292,128996571,3.305,-9.176,-0.617,0.000,0.000,0.000,-223765
3.097779375,129000791,3.305,-9.176,-0.617,0.000,0.000,0.000,-221993
3.10198925,129005012,3.305,-9.176,-0.617,0.000,0.000,0.000,-222977
3.10721825,129010233,3.305,-9.176,-0.617,0.000,0.000,0.000,-223221
3.111365583,129014439,3.266,-9.176,-0.617,0.000,0.000,0.000,-223221
3.114627042,129017659,3.266,-9.176,-0.617,0.000,0.000,0.000,-222842
3.119844583,129022879,3.266,-9.176,-0.617,0.000,0.000,0.000,-222586
3.124101708,129027100,3.266,-9.176,-0.617,0.000,0.000,0.000,-223098
3.128297125,129031320,3.266,-9.176,-0.617,0.000,0.000,0.000,-222538
3.13252475,129035541,3.266,-9.176,-0.617,0.000,0.000,0.000,-222258
3.137752667,129040761,3.266,-9.133,-0.617,0.000,0.000,0.000,-222068
3.139973083,129042982,3.266,-9.133,-0.617,0.000,0.000,0.000,-222462
3.14517375,129048203,3.266,-9.133,-0.617,0.000,0.000,0.000,-223062
3.149394417,129052423,3.266,-9.133,-0.617,0.000,0.000,0.000,-222789
3.154667792,129057643,3.266,-9.133,-0.617,0.000,0.000,0.000,-222526
3.1578505,129060864,3.227,-9.172,-0.617,0.000,0.000,0.000,-222713
3.162066292,129065085,3.227,-9.172,-0.617,0.000,0.000,0.000,-222833
3.16629275,129069305,3.227,-9.172,-0.617,0.000,0.000,0.000,-222191
3.169488708,129072525,3.227,-9.172,-0.617,0.000,0.000,0.000,-222639
3.176789458,129079748,3.227,-9.172,-0.617,0.000,0.000,0.000,-223480
3.180927292,129083968,3.227,-9.172,-0.617,0.000,0.000,0.000,-222813
3.185233667,129088189,3.227,-9.172,-0.617,0.000,0.000,0.000,-222803
3.188451958,129091410,3.227,-9.172,-0.617,0.000,0.000,0.000,-222738
3.194651292,129097631,3.227,-9.172,-0.617,0.000,0.000,0.000,-223033
3.198859792,129101852,3.227,-9.172,-0.617,0.000,0.000,0.000,-222137
3.203039625,129106073,3.227,-9.172,-0.617,0.000,0.000,0.000,-222970
3.207310708,129110294,3.227,-9.172,-0.617,0.000,0.000,0.000,-223082
3.211512833,129114514,3.266,-9.176,-0.578,0.000,0.000,0.000,-222326
3.21475625,129117735,3.266,-9.176,-0.578,0.000,0.000,0.000,-222732
3.221010125,129123956,3.266,-9.176,-0.578,0.000,0.000,0.000,-222420
3.225178458,129128177,3.266,-9.176,-0.578,0.000,0.000,0.000,-221824
3.229460583,129132397,3.266,-9.176,-0.578,0.000,0.000,0.000,-222673
3.234661417,129137617,3.266,-9.176,-0.578,0.000,0.000,0.000,-222137
3.238841,129141838,3.266,-9.176,-0.539,0.000,0.000,0.000,-222629
3.242065917,129145060,3.266,-9.176,-0.539,0.000,0.000,0.000,-223454
3.248317625,129151280,3.266,-9.176,-0.539,0.000,0.000,0.000,-221632
3.252534167,129155501,3.266,-9.176,-0.539,0.000,0.000,0.000,-222365
3.2577185,129160721,3.266,-9.176,-0.539,0.000,0.000,0.000,-223528
3.262087583,129164942,3.266,-9.176,-0.539,0.000,0.000,0.000,-223097
3.266230208,129169162,3.266,-9.176,-0.539,0.000,0.000,0.000,-222304
3.27040125,129173382,3.305,-9.176,-0.617,0.000,0.000,0.000,-222161
3.273649333,129176602,3.305,-9.176,-0.617,0.000,0.000,0.000,-222771
3.279849708,129182822,3.305,-9.176,-0.617,0.000,0.000,0.000,-222542
3.284285833,129187045,3.305,-9.176,-0.617,0.000,0.000,0.000,-221516
3.287326042,129190265,3.305,-9.176,-0.617,0.000,0.000,0.000,-222784
3.291551,129194485,3.305,-9.176,-0.617,0.000,0.000,0.000,-222860
3.295784,129198706,3.305,-9.176,-0.617,0.000,0.000,0.000,-222235
3.299991208,129202926,3.305,-9.133,-0.578,0.000,0.000,0.000,-222206
3.302202417,129205146,3.305,-9.133,-0.578,0.000,0.000,0.000,-222941
3.3075265,129210366,3.305,-9.133,-0.578,0.000,0.000,0.000,-223066
3.311722,129214586,3.305,-9.133,-0.578,0.000,0.000,0.000,-223626
3.315871917,129218806,3.305,-9.133,-0.578,0.000,0.000,0.000,-222151
3.32009925,129223027,3.305,-9.133,-0.578,0.000,0.000,0.000,-222250
3.324341542,129227248,3.305,-9.133,-0.578,0.000,0.000,0.000,-222548
3.328596417,129231468,3.227,-9.137,-0.578,0.000,0.000,0.000,-222435
3.33075475,129233688,3.227,-9.137,-0.578,0.000,0.000,0.000,-222230
3.336948208,129239909,3.227,-9.137,-0.578,0.000,0.000,0.000,-222221
3.34122225,129244130,3.227,-9.137,-0.578,0.000,0.000,0.000,-222985
3.345512917,129248351,3.227,-9.137,-0.578,0.000,0.000,0.000,-223542
3.350830792,129253571,3.227,-9.137,-0.578,0.000,0.000,0.000,-222282
3.355916417,129258792,3.227,-9.137,-0.578,0.000,0.000,0.000,-223037
3.360802417,129263013,3.266,-9.176,-0.617,0.000,0.000,0.000,-223244
3.363220083,129266233,3.266,-9.176,-0.617,0.000,0.000,0.000,-222761
3.36854425,129271454,3.266,-9.176,-0.617,0.000,0.000,0.000,-222172
3.372746208,129275675,3.266,-9.176,-0.617,0.000,0.000,0.000,-222908
3.377981458,129280896,3.266,-9.176,-0.617,0.000,0.000,0.000,-222213
3.382787958,129285117,3.266,-9.176,-0.617,0.000,0.000,0.000,-222017
3.386348583,129289337,3.266,-9.176,-0.617,0.000,0.000,0.000,-222607
3.390612542,129293557,3.266,-9.176,-0.578,0.000,0.000,0.000,-222347
3.392843375,129295777,3.266,-9.176,-0.578,0.000,0.000,0.000,-222708
3.398121792,129300998,3.266,-9.176,-0.578,0.000,0.000,0.000,-222461
3.402387958,129305219,3.266,-9.176,-0.578,0.000,0.000,0.000,-222735
3.405636083,129308439,3.266,-9.176,-0.578,0.000,0.000,0.000,-222477
3.409968667,129312660,3.266,-9.176,-0.578,0.000,0.000,0.000,-222997
3.415211708,129317880,3.266,-9.176,-0.578,0.000,0.000,0.000,-222174
3.420772042,129323101,3.266,-9.176,-0.578,0.000,0.000,0.000,-222417
3.423426875,129326322,3.266,-9.176,-0.578,0.000,0.000,0.000,-221979
3.4315745,129334543,3.266,-9.176,-0.578,0.000,0.000,0.000,-222206
3.4367655,129339764,3.266,-9.176,-0.578,0.000,0.000,0.000,-222131
3.441079375,129343984,3.266,-9.176,-0.578,0.000,0.000,0.000,-224203
3.44532225,129348204,3.266,-9.176,-0.578,0.000,0.000,0.000,-223071
3.449472792,129352425,3.266,-9.176,-0.578,0.000,0.000,0.000,-222149
3.45484675,129357645,3.266,-9.133,-0.617,0.000,0.000,0.000,-222389
3.457951792,129360865,3.266,-9.133,-0.617,0.000,0.000,0.000,-222076
3.463151375,129366085,3.266,-9.133,-0.617,0.000,0.000,0.000,-223379
3.468383625,129371306,3.266,-9.133,-0.617,0.000,0.000,0.000,-222759
3.472537375,129375527,3.266,-9.133,-0.617,0.000,0.000,0.000,-222671
3.477965875,129380747,3.266,-9.133,-0.617,0.000,0.000,0.000,-222301
3.481058875,129383968,3.227,-9.137,-0.578,0.000,0.000,0.000,-222967
3.485295167,129388188,3.227,-9.137,-0.578,0.000,0.000,0.000,-222475
3.48843125,129391409,3.266,-9.133,-0.617,0.000,0.000,0.000,-223589
3.492713792,129395629,3.266,-9.133,-0.617,0.000,0.000,0.000,-223087
3.497990583,129400850,3.266,-9.133,-0.617,0.000,0.000,0.000,-223410
3.502107,129405070,3.266,-9.133,-0.617,0.000,0.000,0.000,-222892
3.506427292,129409290,3.266,-9.133,-0.617,0.000,0.000,0.000,-222342
3.510612625,129413511,3.266,-9.133,-0.617,0.000,0.000,0.000,-222209
3.516709792,129418732,3.266,-9.176,-0.656,0.000,0.000,0.000,-222521
3.519465917,129421952,3.266,-9.176,-0.656,0.000,0.000,0.000,-222082
3.524278125,129427172,3.266,-9.176,-0.656,0.000,0.000,0.000,-223057
3.527419,129430392,3.266,-9.176,-0.656,0.000,0.000,0.000,-222237
3.53172175,129434612,3.266,-9.176,-0.656,0.000,0.000,0.000,-222478
3.536913125,129439833,3.266,-9.176,-0.656,0.000,0.000,0.000,-222301
3.541259542,129444055,3.266,-9.176,-0.656,0.000,0.000,0.000,-222991
3.545622333,129448276,3.227,-9.137,-0.617,0.000,0.000,0.000,-222857
3.548814333,129451496,3.227,-9.137,-0.617,0.000,0.000,0.000,-222712
3.554868375,129457717,3.227,-9.137,-0.617,0.000,0.000,0.000,-221990
3.559023375,129461938,3.227,-9.137,-0.617,0.000,0.000,0.000,-222711
3.563296292,129466159,3.227,-9.137,-0.617,0.000,0.000,0.000,-222800
3.5675755,129470379,3.227,-9.137,-0.617,0.000,0.000,0.000,-222160
3.571902042,129474599,3.227,-9.137,-0.617,0.000,0.000,0.000,-222349
3.57713725,129479820,3.227,-9.172,-0.578,0.000,0.000,0.000,-223085
3.58035075,129483041,3.227,-9.172,-0.578,0.000,0.000,0.000,-222991
3.5870825,129489261,3.227,-9.172,-0.578,0.000,0.000,0.000,-222676
3.590599333,129493481,3.227,-9.172,-0.578,0.000,0.000,0.000,-222877
3.594845958,129497702,3.227,-9.172,-0.578,0.000,0.000,0.000,-222521
3.599115667,129501923,3.227,-9.172,-0.578,0.000,0.000,0.000,-222538
3.603455458,129506144,3.227,-9.172,-0.578,0.000,0.000,0.000,-222858
3.60768025,129510364,3.266,-9.133,-0.617,0.000,0.000,0.000,-223165
3.610114833,129512584,3.266,-9.133,-0.617,0.000,0.000,0.000,-223226
3.614293708,129516804,3.266,-9.133,-0.617,0.000,0.000,0.000,-222827
3.618241125,129521024,3.266,-9.133,-0.617,0.000,0.000,0.000,-222278
3.622582208,129525245,3.266,-9.133,-0.617,0.000,0.000,0.000,-221989
3.626455375,129529466,3.266,-9.133,-0.617,0.000,0.000,0.000,-222123
3.630764667,129533686,3.266,-9.133,-0.617,0.000,0.000,0.000,-223179
3.635975417,129538906,3.227,-9.172,-0.617,0.000,0.000,0.000,-222641
3.639191417,129542127,3.227,-9.172,-0.617,0.000,0.000,0.000,-222860
3.644491917,129547348,3.227,-9.172,-0.617,0.000,0.000,0.000,-222653
3.648684083,129551569,3.227,-9.172,-0.617,0.000,0.000,0.000,-221915
3.65416825,129556790,3.227,-9.172,-0.617,0.000,0.000,0.000,-222302
3.658117208,129561010,3.227,-9.172,-0.617,0.000,0.000,0.000,-222804
3.662287958,129565230,3.227,-9.172,-0.617,0.000,0.000,0.000,-223294
3.667569125,129570450,3.227,-9.172,-0.578,0.000,0.000,0.000,-221864
3.67073875,129573671,3.227,-9.172,-0.578,0.000,0.000,0.000,-223119
3.676975125,129579892,3.227,-9.172,-0.578,0.000,0.000,0.000,-222685
3.681202875,129584112,3.227,-9.172,-0.578,0.000,0.000,0.000,-222387
3.688418708,129591333,3.227,-9.172,-0.578,0.000,0.000,0.000,-222244
3.692672042,129595554,3.227,-9.172,-0.578,0.000,0.000,0.000,-222807
3.697887125,129600774,3.227,-9.172,-0.578,0.000,0.000,0.000,-222688
3.701199,129603994,3.266,-9.176,-0.578,0.000,0.000,0.000,-222040
3.70352275,129606215,3.266,-9.176,-0.578,0.000,0.000,0.000,-222430
3.708744917,129611435,3.266,-9.176,-0.578,0.000,0.000,0.000,-222958
3.712973292,129615655,3.266,-9.176,-0.578,0.000,0.000,0.000,-222366
3.718255833,129620875,3.266,-9.176,-0.578,0.000,0.000,0.000,-222672
3.723168875,129626095,3.266,-9.176,-0.578,0.000,0.000,0.000,-222833
3.728430625,129631315,3.266,-9.133,-0.578,0.000,0.000,0.000,-223013
3.731669917,129634535,3.266,-9.133,-0.578,0.000,0.000,0.000,-221750
3.7379825,129640755,3.266,-9.133,-0.578,0.000,0.000,0.000,-223102
3.741994208,129644976,3.266,-9.133,-0.578,0.000,0.000,0.000,-223549
3.746521167,129649197,3.266,-9.133,-0.578,0.000,0.000,0.000,-221630
3.750786167,129653418,3.266,-9.133,-0.578,0.000,0.000,0.000,-221778
3.755684542,129658638,3.266,-9.133,-0.578,0.000,0.000,0.000,-222698
3.760019208,129662858,3.266,-9.133,-0.578,0.000,0.000,0.000,-222681
3.76326675,129666078,3.266,-9.133,-0.578,0.000,0.000,0.000,-222930
3.768526792,129671298,3.266,-9.133,-0.578,0.000,0.000,0.000,-221932
3.773840917,129676519,3.266,-9.133,-0.578,0.000,0.000,0.000,-222912
3.778111583,129680740,3.266,-9.133,-0.578,0.000,0.000,0.000,-222044
3.782294417,129684961,3.266,-9.133,-0.578,0.000,0.000,0.000,-222109
3.786247833,129689182,3.266,-9.133,-0.578,0.000,0.000,0.000,-222669
3.790464917,129693403,3.227,-9.172,-0.617,0.000,0.000,0.000,-223019
3.793671583,129696624,3.227,-9.172,-0.617,0.000,0.000,0.000,-223414
3.798914667,129701845,3.227,-9.172,-0.617,0.000,0.000,0.000,-222528
3.80314925,129706065,3.227,-9.172,-0.617,0.000,0.000,0.000,-222950
3.807616375,129710285,3.227,-9.172,-0.617,0.000,0.000,0.000,-222201
3.812805667,129715505,3.227,-9.172,-0.617,0.000,0.000,0.000,-222928
3.81789,129720726,3.227,-9.172,-0.617,0.000,0.000,0.000,-222219
3.821067792,129723946,3.227,-9.172,-0.656,0.000,0.000,0.000,-223226
3.826223125,129729167,3.227,-9.172,-0.656,0.000,0.000,0.000,-222720
3.830433542,129733387,3.227,-9.172,-0.656,0.000,0.000,0.000,-221608
3.834681167,129737608,3.227,-9.172,-0.656,0.000,0.000,0.000,-222402
3.83889025,129741829,3.227,-9.172,-0.656,0.000,0.000,0.000,-221753
3.843118833,129746051,3.227,-9.172,-0.656,0.000,0.000,0.000,-222934
3.847326792,129750272,3.266,-9.133,-0.617,0.000,0.000,0.000,-222389
3.849628417,129752492,3.266,-9.133,-0.617,0.000,0.000,0.000,-221830
3.855791083,129758713,3.266,-9.133,-0.617,0.000,0.000,0.000,-222952
3.859993208,129762934,3.266,-9.133,-0.617,0.000,0.000,0.000,-222662
3.864152833,129767155,3.266,-9.133,-0.617,0.000,0.000,0.000,-223069
3.868403333,129771375,3.266,-9.133,-0.617,0.000,0.000,0.000,-222196
3.873699083,129776595,3.266,-9.133,-0.617,0.000,0.000,0.000,-223337
3.877875875,129780816,3.266,-9.133,-0.578,0.000,0.000,0.000,-223396
3.880077333,129783037,3.266,-9.133,-0.578,0.000,0.000,0.000,-222378
3.884433333,129787258,3.266,-9.133,-0.578,0.000,0.000,0.000,-221819
3.888920625,129791478,3.266,-9.133,-0.578,0.000,0.000,0.000,-222150
3.892789833,129795699,3.266,-9.133,-0.578,0.000,0.000,0.000,-222730
3.896969125,129799919,3.266,-9.133,-0.578,0.000,0.000,0.000,-222765
3.901221292,129804141,3.266,-9.133,-0.578,0.000,0.000,0.000,-222269
3.905515958,129808361,3.266,-9.133,-0.578,0.000,0.000,0.000,-222664
3.908671167,129811582,3.266,-9.133,-0.578,0.000,0.000,0.000,-222760
3.91494275,129817803,3.266,-9.133,-0.578,0.000,0.000,0.000,-222641
3.919137792,129822024,3.266,-9.133,-0.578,0.000,0.000,0.000,-222041
3.923567,129826244,3.266,-9.133,-0.578,0.000,0.000,0.000,-223247
3.928573875,129831464,3.266,-9.133,-0.578,0.000,0.000,0.000,-222374
3.932826542,129835685,3.266,-9.133,-0.578,0.000,0.000,0.000,-222158
3.937990542,129840905,3.266,-9.172,-0.691,0.000,0.000,0.000,-222923
3.940131083,129843125,3.266,-9.172,-0.691,0.000,0.000,0.000,-222989
3.948417833,129851345,3.266,-9.172,-0.691,0.000,0.000,0.000,-221894
3.952697542,129855565,3.266,-9.172,-0.691,0.000,0.000,0.000,-222972
3.95689275,129859785,3.266,-9.172,-0.691,0.000,0.000,0.000,-222076
3.961090208,129864006,3.266,-9.172,-0.691,0.000,0.000,0.000,-221647
3.96628575,129869226,3.266,-9.172,-0.691,0.000,0.000,0.000,-222026
3.970642583,129873446,3.266,-9.133,-0.578,0.000,0.000,0.000,-221949
3.973976083,129876667,3.266,-9.133,-0.578,0.000,0.000,0.000,-223871
3.978958833,129881888,3.266,-9.133,-0.578,0.000,0.000,0.000,-222962
3.984474292,129887109,3.266,-9.133,-0.578,0.000,0.000,0.000,-221638
3.988392667,129891329,3.266,-9.133,-0.578,0.000,0.000,0.000,-222849
3.993578708,129896549,3.266,-9.133,-0.578,0.000,0.000,0.000,-222153
3.99791225,129900770,3.266,-9.133,-0.578,0.000,0.000,0.000,-223215
4.002071875,129904990,3.266,-9.176,-0.578,0.000,0.000,0.000,-222577
4.004242875,129907210,3.266,-9.176,-0.578,0.000,0.000,0.000,-223377
4.0085635,129911430,3.266,-9.176,-0.578,0.000,0.000,0.000,-222343
4.012940833,129915651,3.266,-9.176,-0.578,0.000,0.000,0.000,-222131
4.017986333,129920872,3.266,-9.176,-0.578,0.000,0.000,0.000,-222460
4.022115958,129925093,3.266,-9.176,-0.578,0.000,0.000,0.000,-223609
4.026369375,129929313,3.266,-9.176,-0.578,0.000,0.000,0.000,-222620
4.030636042,129933534,3.266,-9.133,-0.656,0.000,0.000,0.000,-222287
4.033810333,129936755,3.266,-9.133,-0.656,0.000,0.000,0.000,-222278
4.039046208,129941975,3.266,-9.133,-0.656,0.000,0.000,0.000,-223220
4.043264875,129946198,3.266,-9.133,-0.656,0.000,0.000,0.000,-222765
4.048538292,129951419,3.266,-9.133,-0.656,0.000,0.000,0.000,-223045
4.052802958,129955640,3.266,-9.133,-0.656,0.000,0.000,0.000,-222355
4.057947042,129960861,3.266,-9.133,-0.656,0.000,0.000,0.000,-223231
4.062225958,129965081,3.227,-9.172,-0.578,0.000,0.000,0.000,-222684
4.065394042,129968301,3.227,-9.172,-0.578,0.000,0.000,0.000,-222020
4.070645792,129973521,3.227,-9.172,-0.578,0.000,0.000,0.000,-223337
4.075820875,129978742,3.227,-9.172,-0.578,0.000,0.000,0.000,-223293
4.081053083,129983963,3.227,-9.172,-0.578,0.000,0.000,0.000,-221929
4.086286333,129989184,3.266,-9.176,-0.578,0.000,0.000,0.000,-222475
4.089404,129992404,3.266,-9.176,-0.578,0.000,0.000,0.000,-222968
4.09580475,129998625,3.266,-9.176,-0.578,0.000,0.000,0.000,-222713
4.099895125,130002845,3.266,-9.176,-0.578,0.000,0.000,0.000,-222215
4.104084958,130007066,3.266,-9.176,-0.578,0.000,0.000,0.000,-222645
4.108330167,130011286,3.266,-9.176,-0.578,0.000,0.000,0.000,-223420
4.113568208,130016507,3.266,-9.176,-0.578,0.000,0.000,0.000,-222730
4.117867917,130020727,3.266,-9.133,-0.656,0.000,0.000,0.000,-222055
4.121341042,130023947,3.266,-9.133,-0.656,0.000,0.000,0.000,-222780
4.12621875,130029167,3.266,-9.133,-0.656,0.000,0.000,0.000,-223031
4.131426375,130034387,3.266,-9.133,-0.656,0.000,0.000,0.000,-222627
4.135663542,130038608,3.266,-9.133,-0.656,0.000,0.000,0.000,-221744
4.140883792,130043828,3.266,-9.133,-0.656,0.000,0.000,0.000,-222300
4.146151167,130049050,3.266,-9.133,-0.656,0.000,0.000,0.000,-222587
4.150346583,130053270,3.266,-9.133,-0.539,0.000,0.000,0.000,-222286
4.15254875,130055491,3.266,-9.133,-0.539,0.000,0.000,0.000,-222224
4.157794625,130060711,3.266,-9.133,-0.539,0.000,0.000,0.000,-222600
4.161070667,130063931,3.266,-9.133,-0.539,0.000,0.000,0.000,-223327
4.165241417,130068151,3.266,-9.133,-0.539,0.000,0.000,0.000,-222597
4.169529833,130072371,3.266,-9.133,-0.539,0.000,0.000,0.000,-221888
4.173757917,130076592,3.266,-9.133,-0.539,0.000,0.000,0.000,-222808
4.179326708,130081813,3.305,-9.133,-0.617,0.000,0.000,0.000,-222372
4.182181833,130085033,3.305,-9.133,-0.617,0.000,0.000,0.000,-222310
4.187354333,130090253,3.305,-9.133,-0.617,0.000,0.000,0.000,-222400
4.191591417,130094474,3.305,-9.133,-0.617,0.000,0.000,0.000,-222887
4.198898042,130101695,3.305,-9.133,-0.617,0.000,0.000,0.000,-222418
4.203239833,130105915,3.305,-9.133,-0.617,0.000,0.000,0.000,-222680
4.206139,130109136,3.305,-9.133,-0.617,0.000,0.000,0.000,-223036
4.210677833,130113356,3.227,-9.137,-0.617,0.000,0.000,0.000,-222530
4.21410225,130116577,3.227,-9.137,-0.617,0.000,0.000,0.000,-222826
4.218903208,130121799,3.227,-9.137,-0.617,0.000,0.000,0.000,-222728
4.223041583,130126020,3.227,-9.137,-0.617,0.000,0.000,0.000,-222605
4.228325208,130131240,3.227,-9.137,-0.617,0.000,0.000,0.000,-223301
4.233551792,130136460,3.227,-9.137,-0.617,0.000,0.000,0.000,-222661
4.237740708,130140665,3.227,-9.137,-0.617,0.000,0.000,0.000,-222661
4.242026625,130144885,3.227,-9.098,-0.578,0.000,0.000,0.000,-222836
4.2452045,130148105,3.227,-9.098,-0.578,0.000,0.000,0.000,-222558
4.251422583,130154326,3.227,-9.098,-0.578,0.000,0.000,0.000,-221914
4.256687667,130159546,3.227,-9.098,-0.578,0.000,0.000,0.000,-222716
4.260769792,130163767,3.227,-9.098,-0.578,0.000,0.000,0.000,-222755
4.266010917,130168988,3.227,-9.098,-0.578,0.000,0.000,0.000,-221933
4.271260542,130174209,3.191,-9.211,-0.617,0.000,0.000,0.000,-222089
4.27454675,130177430,3.191,-9.211,-0.617,0.000,0.000,0.000,-223296
4.280830792,130183650,3.191,-9.211,-0.617,0.000,0.000,0.000,-223144
4.285265667,130187871,3.191,-9.211,-0.617,0.000,0.000,0.000,-222011
4.289163042,130192091,3.191,-9.211,-0.617,0.000,0.000,0.000,-222526
4.2933935,130196312,3.191,-9.211,-0.617,0.000,0.000,0.000,-222827
4.298666042,130201533,3.191,-9.211,-0.617,0.000,0.000,0.000,-222263
4.302987708,130205754,3.227,-9.172,-0.578,0.000,0.000,0.000,-222208
4.306304333,130208975,3.227,-9.172,-0.578,0.000,0.000,0.000,-222363
4.311573792,130214195,3.227,-9.172,-0.578,0.000,0.000,0.000,-222784
4.316772417,130219415,3.227,-9.172,-0.578,0.000,0.000,0.000,-222768
4.320680417,130223636,3.227,-9.172,-0.578,0.000,0.000,0.000,-223091
4.324969333,130227856,3.227,-9.172,-0.578,0.000,0.000,0.000,-222925
4.328120667,130231077,3.227,-9.172,-0.578,0.000,0.000,0.000,-222604
4.332417083,130235297,3.266,-9.133,-0.539,0.000,0.000,0.000,-222363
4.335714,130238517,3.266,-9.133,-0.539,0.000,0.000,0.000,-222512
4.342099583,130244737,3.266,-9.133,-0.539,0.000,0.000,0.000,-222438
4.346270375,130248958,3.266,-9.133,-0.539,0.000,0.000,0.000,-222203
4.35148525,130253179,3.266,-9.133,-0.539,0.000,0.000,0.000,-221962
4.355550083,130258400,3.266,-9.133,-0.539,0.000,0.000,0.000,-223095
4.35969175,130262621,3.266,-9.133,-0.539,0.000,0.000,0.000,-222638
4.363856583,130266842,3.227,-9.172,-0.656,0.000,0.000,0.000,-222189
4.367150042,130270062,3.227,-9.172,-0.656,0.000,0.000,0.000,-221588
4.372354625,130275283,3.227,-9.172,-0.656,0.000,0.000,0.000,-222206
4.377621542,130280504,3.227,-9.172,-0.656,0.000,0.000,0.000,-222665
4.382621208,130284724,3.227,-9.172,-0.656,0.000,0.000,0.000,-222819
4.386058667,130288945,3.227,-9.172,-0.656,0.000,0.000,0.000,-222539
4.390268875,130293166,3.227,-9.172,-0.656,0.000,0.000,0.000,-222847
4.395541208,130298386,3.266,-9.133,-0.656,0.000,0.000,0.000,-222412
4.397723542,130300607,3.266,-9.133,-0.656,0.000,0.000,0.000,-222247
4.402912833,130305828,3.266,-9.133,-0.656,0.000,0.000,0.000,-222928
4.4082885,130311050,3.266,-9.133,-0.656,0.000,0.000,0.000,-223491
4.4125915,130315271,3.266,-9.133,-0.656,0.000,0.000,0.000,-223044
4.416827125,130319491,3.266,-9.133,-0.656,0.000,0.000,0.000,-222463
4.420293125,130322711,3.266,-9.133,-0.656,0.000,0.000,0.000,-222611
4.423963958,130326931,3.227,-9.137,-0.617,0.000,0.000,0.000,-222491
4.42622875,130329151,3.227,-9.137,-0.617,0.000,0.000,0.000,-222226
4.430403375,130333371,3.227,-9.137,-0.617,0.000,0.000,0.000,-222030
4.435669875,130338592,3.227,-9.137,-0.617,0.000,0.000,0.000,-222137
4.440979875,130343813,3.227,-9.137,-0.617,0.000,0.000,0.000,-224131
4.447226,130350033,3.227,-9.137,-0.617,0.000,0.000,0.000,-222373
4.451467208,130354254,3.227,-9.137,-0.617,0.000,0.000,0.000,-222363
4.456562708,130359475,3.227,-9.137,-0.617,0.000,0.000,0.000,-222575
4.458773417,130361696,3.227,-9.137,-0.617,0.000,0.000,0.000,-222668
4.46401325,130366916,3.227,-9.137,-0.617,0.000,0.000,0.000,-222792
4.46825325,130371137,3.227,-9.137,-0.617,0.000,0.000,0.000,-222400
4.472557167,130375357,3.227,-9.137,-0.617,0.000,0.000,0.000,-222198
4.477896208,130380578,3.227,-9.137,-0.617,0.000,0.000,0.000,-222689
4.482118167,130384798,3.227,-9.137,-0.617,0.000,0.000,0.000,-222242
4.486544708,130389019,3.266,-9.176,-0.617,0.000,0.000,0.000,-222109
4.489303167,130392239,3.266,-9.176,-0.617,0.000,0.000,0.000,-222589
4.495522625,130398460,3.266,-9.176,-0.617,0.000,0.000,0.000,-222937
4.499767458,130402681,3.266,-9.176,-0.617,0.000,0.000,0.000,-223068
4.502971667,130405901,3.266,-9.176,-0.617,0.000,0.000,0.000,-222334
4.508254792,130411121,3.266,-9.176,-0.617,0.000,0.000,0.000,-222445
4.5124865,130415342,3.266,-9.176,-0.617,0.000,0.000,0.000,-222599
4.519008917,130419562,3.266,-9.133,-0.617,0.000,0.000,0.000,-222486
4.519296875,130421783,3.266,-9.133,-0.617,0.000,0.000,0.000,-221858
4.523027375,130426004,3.266,-9.133,-0.617,0.000,0.000,0.000,-222564
4.527615667,130430224,3.266,-9.133,-0.617,0.000,0.000,0.000,-223046
4.53092025,130433444,3.266,-9.133,-0.617,0.000,0.000,0.000,-222127
4.536768583,130439665,3.266,-9.133,-0.617,0.000,0.000,0.000,-221860
4.541015708,130443886,3.266,-9.133,-0.617,0.000,0.000,0.000,-222616
4.545312917,130448092,3.305,-9.133,-0.617,0.000,0.000,0.000,-222616
4.547480333,130450312,3.305,-9.133,-0.617,0.000,0.000,0.000,-222725
4.551611375,130454533,3.305,-9.133,-0.617,0.000,0.000,0.000,-222617
4.555835958,130458754,3.305,-9.133,-0.617,0.000,0.000,0.000,-223024
4.561098667,130463974,3.305,-9.133,-0.617,0.000,0.000,0.000,-222944
4.566283,130469194,3.266,-9.176,-0.617,0.000,0.000,0.000,-222890
4.569721667,130472414,3.266,-9.176,-0.617,0.000,0.000,0.000,-221936
4.575972042,130478635,3.266,-9.176,-0.617,0.000,0.000,0.000,-222081
4.580166583,130482855,3.266,-9.176,-0.617,0.000,0.000,0.000,-222766
4.584753083,130487075,3.266,-9.176,-0.617,0.000,0.000,0.000,-222575
4.588383,130491295,3.266,-9.176,-0.617,0.000,0.000,0.000,-222228
4.591614,130494516,3.305,-9.176,-0.578,0.000,0.000,0.000,-222405
4.593820208,130496736,3.305,-9.176,-0.578,0.000,0.000,0.000,-222427
4.599082333,130501956,3.305,-9.176,-0.578,0.000,0.000,0.000,-222631
4.603335042,130506176,3.305,-9.176,-0.578,0.000,0.000,0.000,-222488
4.607706167,130510397,3.305,-9.176,-0.578,0.000,0.000,0.000,-222262
4.611948333,130514618,3.305,-9.176,-0.578,0.000,0.000,0.000,-222358
4.617184667,130519838,3.305,-9.176,-0.578,0.000,0.000,0.000,-222291
4.621138625,130524059,3.266,-9.094,-0.617,0.000,0.000,0.000,-223206
4.624320583,130527279,3.266,-9.094,-0.617,0.000,0.000,0.000,-222770
4.62958575,130532502,3.266,-9.094,-0.617,0.000,0.000,0.000,-222351
4.633828375,130536723,3.266,-9.094,-0.617,0.000,0.000,0.000,-222293
4.639016333,130541943,3.266,-9.094,-0.617,0.000,0.000,0.000,-223349
4.643472375,130546163,3.266,-9.094,-0.617,0.000,0.000,0.000,-222553
4.647420625,130550383,3.266,-9.094,-0.617,0.000,0.000,0.000,-222651
4.650690542,130553603,3.266,-9.094,-0.656,0.000,0.000,0.000,-222455
4.652944833,130555824,3.266,-9.094,-0.656,0.000,0.000,0.000,-222719
4.658139625,130561046,3.266,-9.094,-0.656,0.000,0.000,0.000,-223170
4.662453208,130565266,3.266,-9.094,-0.656,0.000,0.000,0.000,-222505
4.666779292,130569487,3.266,-9.094,-0.656,0.000,0.000,0.000,-221298
4.670813083,130573708,3.266,-9.094,-0.656,0.000,0.000,0.000,-223358
4.676054917,130578929,3.266,-9.176,-0.578,0.000,0.000,0.000,-223167
4.678431083,130581150,3.266,-9.176,-0.578,0.000,0.000,0.000,-222497
4.682903958,130585371,3.266,-9.176,-0.578,0.000,0.000,0.000,-222202
4.686634542,130589591,3.266,-9.176,-0.578,0.000,0.000,0.000,-222375
4.690928542,130593812,3.266,-9.176,-0.578,0.000,0.000,0.000,-223009
4.698161375,130601032,3.266,-9.176,-0.578,0.000,0.000,0.000,-223271
4.702470125,130605252,3.266,-9.176,-0.578,0.000,0.000,0.000,-222482
4.705851458,130608472,3.305,-9.176,-0.617,0.000,0.000,0.000,-222066
4.707995875,130610692,3.305,-9.176,-0.617,0.000,0.000,0.000,-222395
4.712361042,130614913,3.305,-9.176,-0.617,0.000,0.000,0.000,-222648
4.716466083,130619133,3.305,-9.176,-0.617,0.000,0.000,0.000,-222488
4.721421708,130624353,3.305,-9.176,-0.617,0.000,0.000,0.000,-222878
4.725699042,130628573,3.305,-9.176,-0.617,0.000,0.000,0.000,-223384
4.729924583,130632793,3.305,-9.176,-0.617,0.000,0.000,0.000,-222174
4.733140042,130636014,3.266,-9.133,-0.617,0.000,0.000,0.000,-221928
4.736558625,130639234,3.266,-9.133,-0.617,0.000,0.000,0.000,-222042
4.741468167,130644455,3.266,-9.133,-0.617,0.000,0.000,0.000,-222519
4.745928583,130648676,3.266,-9.133,-0.617,0.000,0.000,0.000,-222821
4.748958875,130651897,3.266,-9.133,-0.617,0.000,0.000,0.000,-222092
4.753182625,130656118,3.266,-9.133,-0.617,0.000,0.000,0.000,-222507
4.757395583,130660339,3.266,-9.133,-0.617,0.000,0.000,0.000,-222869
4.760759917,130663560,3.266,-9.137,-0.691,0.000,0.000,0.000,-222563
4.763149875,130665781,3.266,-9.137,-0.691,0.000,0.000,0.000,-221948
4.767043917,130670001,3.266,-9.137,-0.691,0.000,0.000,0.000,-222985
4.771588708,130674222,3.266,-9.137,-0.691,0.000,0.000,0.000,-222256
4.77674925,130679427,3.266,-9.137,-0.691,0.000,0.000,0.000,-222256
4.780964125,130683647,3.266,-9.137,-0.691,0.000,0.000,0.000,-222623
4.785523167,130687868,3.266,-9.137,-0.691,0.000,0.000,0.000,-221869
4.788614667,130691089,3.227,-9.172,-0.578,0.000,0.000,0.000,-223633
4.790379542,130693310,3.227,-9.172,-0.578,0.000,0.000,0.000,-223645
4.795587792,130698531,3.227,-9.172,-0.578,0.000,0.000,0.000,-222990
4.800833917,130703752,3.227,-9.172,-0.578,0.000,0.000,0.000,-222531
4.804172458,130706972,3.227,-9.172,-0.578,0.000,0.000,0.000,-223144
4.80871675,130711193,3.227,-9.172,-0.578,0.000,0.000,0.000,-222618
4.812728708,130715413,3.227,-9.172,-0.578,0.000,0.000,0.000,-222598
4.816735,130719633,3.266,-9.133,-0.578,0.000,0.000,0.000,-221935
4.819206792,130721854,3.266,-9.133,-0.578,0.000,0.000,0.000,-222639
4.824144167,130727074,3.266,-9.133,-0.578,0.000,0.000,0.000,-223302
4.828316125,130731294,3.266,-9.133,-0.578,0.000,0.000,0.000,-222159
4.831589583,130734514,3.266,-9.133,-0.578,0.000,0.000,0.000,-221937
4.836868417,130739735,3.266,-9.133,-0.578,0.000,0.000,0.000,-223504
4.841031042,130743956,3.266,-9.133,-0.578,0.000,0.000,0.000,-223185
4.844263208,130747177,3.266,-9.176,-0.656,0.000,0.000,0.000,-222822
4.849532125,130752397,3.266,-9.176,-0.656,0.000,0.000,0.000,-222661
4.853825917,130756618,3.266,-9.176,-0.656,0.000,0.000,0.000,-222388
4.858908292,130761841,3.266,-9.176,-0.656,0.000,0.000,0.000,-223019
4.864523917,130767061,3.266,-9.176,-0.656,0.000,0.000,0.000,-222104
4.869318667,130772282,3.266,-9.176,-0.617,0.000,0.000,0.000,-222823
4.872610708,130775502,3.266,-9.176,-0.617,0.000,0.000,0.000,-223193
4.87877525,130781722,3.266,-9.176,-0.617,0.000,0.000,0.000,-222428
4.883033875,130785942,3.266,-9.176,-0.617,0.000,0.000,0.000,-221698
4.887778333,130790163,3.266,-9.176,-0.617,0.000,0.000,0.000,-223338
4.891509625,130794383,3.266,-9.176,-0.617,0.000,0.000,0.000,-222806
4.896792417,130799603,3.266,-9.176,-0.617,0.000,0.000,0.000,-222301
4.900977792,130803825,3.266,-9.133,-0.617,0.000,0.000,0.000,-222204
4.904101458,130807046,3.266,-9.133,-0.617,0.000,0.000,0.000,-222630
4.909430167,130812266,3.266,-9.133,-0.617,0.000,0.000,0.000,-223889
4.914735375,130817487,3.266,-9.133,-0.617,0.000,0.000,0.000,-222117
4.919070833,130821708,3.266,-9.133,-0.617,0.000,0.000,0.000,-223078
4.92306925,130825929,3.266,-9.133,-0.617,0.000,0.000,0.000,-223355
4.927192083,130830150,3.266,-9.133,-0.617,0.000,0.000,0.000,-222742
4.931596,130834370,3.266,-9.176,-0.617,0.000,0.000,0.000,-222548
4.9349545,130837591,3.266,-9.176,-0.617,0.000,0.000,0.000,-222644
4.939913625,130842812,3.266,-9.176,-0.617,0.000,0.000,0.000,-223305
4.944102667,130847033,3.266,-9.176,-0.617,0.000,0.000,0.000,-222221
4.948324417,130851253,3.266,-9.176,-0.617,0.000,0.000,0.000,-223184
4.9529215,130855474,3.266,-9.176,-0.617,0.000,0.000,0.000,-222250
4.959785083,130862694,3.266,-9.176,-0.617,0.000,0.000,0.000,-222777
4.963992542,130866914,3.266,-9.176,-0.539,0.000,0.000,0.000,-222935
4.96730275,130870134,3.266,-9.176,-0.539,0.000,0.000,0.000,-221909
4.973703417,130876355,3.266,-9.176,-0.539,0.000,0.000,0.000,-223201
4.978647667,130881576,3.266,-9.176,-0.539,0.000,0.000,0.000,-222407
4.983154208,130885796,3.266,-9.176,-0.539,0.000,0.000,0.000,-222508
4.987394125,130890016,3.266,-9.176,-0.539,0.000,0.000,0.000,-222687
4.991283333,130894237,3.266,-9.176,-0.539,0.000,0.000,0.000,-222883
4.996566292,130899457,3.266,-9.176,-0.656,0.000,0.000,0.000,-222670
4.998754917,130901678,3.266,-9.176,-0.656,0.000,0.000,0.000,-222341
5.003990083,130906899,3.266,-9.176,-0.656,0.000,0.000,0.000,-222470
5.008247083,130911120,3.266,-9.176,-0.656,0.000,0.000,0.000,-222450
5.012552333,130915340,3.266,-9.176,-0.656,0.000,0.000,0.000,-222743
5.016911042,130919561,3.266,-9.176,-0.656,0.000,0.000,0.000,-222646
5.020875875,130923782,3.266,-9.176,-0.656,0.000,0.000,0.000,-222661
5.025039583,130928003,3.266,-9.133,-0.578,0.000,0.000,0.000,-223443
5.02831725,130931224,3.266,-9.133,-0.578,0.000,0.000,0.000,-222560
5.034555333,130937444,3.266,-9.133,-0.578,0.000,0.000,0.000,-222547
5.038756875,130941664,3.266,-9.133,-0.578,0.000,0.000,0.000,-222657
5.041957917,130944885,3.266,-9.133,-0.578,0.000,0.000,0.000,-222707
5.046183292,130949106,3.266,-9.133,-0.578,0.000,0.000,0.000,-222292
5.050394125,130953326,3.266,-9.133,-0.578,0.000,0.000,0.000,-222375
5.055643625,130958546,3.227,-9.137,-0.656,0.000,0.000,0.000,-223339
5.057859375,130960766,3.227,-9.137,-0.656,0.000,0.000,0.000,-222556
5.064068875,130966986,3.227,-9.137,-0.656,0.000,0.000,0.000,-221666
5.068290042,130971207,3.227,-9.137,-0.656,0.000,0.000,0.000,-222569
5.071526875,130974427,3.227,-9.137,-0.656,0.000,0.000,0.000,-222318
5.076756958,130979650,3.227,-9.137,-0.656,0.000,0.000,0.000,-223245
5.080995333,130983871,3.227,-9.137,-0.656,0.000,0.000,0.000,-221213
5.08631375,130989092,3.266,-9.133,-0.617,0.000,0.000,0.000,-222433
5.089354667,130992313,3.266,-9.133,-0.617,0.000,0.000,0.000,-223143
5.095816375,130998534,3.266,-9.133,-0.617,0.000,0.000,0.000,-222826
5.099764708,131002755,3.266,-9.133,-0.617,0.000,0.000,0.000,-222013
5.104082125,131006976,3.266,-9.133,-0.617,0.000,0.000,0.000,-223228
5.108293542,131011197,3.266,-9.133,-0.617,0.000,0.000,0.000,-222861
5.113506917,131016418,3.266,-9.133,-0.617,0.000,0.000,0.000,-222714
5.117591792,131020638,3.227,-9.172,-0.539,0.000,0.000,0.000,-222317
5.120956667,131023858,3.227,-9.172,-0.539,0.000,0.000,0.000,-222004
5.126174583,131029079,3.227,-9.172,-0.539,0.000,0.000,0.000,-222876
5.130405708,131033299,3.227,-9.137,-0.656,0.000,0.000,0.000,-222322
5.133626542,131036519,3.227,-9.137,-0.656,0.000,0.000,0.000,-221937
5.138840542,131041740,3.227,-9.137,-0.656,0.000,0.000,0.000,-222432
5.143069125,131045960,3.227,-9.137,-0.656,0.000,0.000,0.000,-222583
5.147253833,131050181,3.227,-9.137,-0.656,0.000,0.000,0.000,-222324
5.152856333,131055402,3.227,-9.137,-0.656,0.000,0.000,0.000,-222735
5.157723875,131060622,3.227,-9.137,-0.656,0.000,0.000,0.000,-222444
5.161963875,131064843,3.266,-9.176,-0.578,0.000,0.000,0.000,-222594
5.164171708,131067064,3.266,-9.176,-0.578,0.000,0.000,0.000,-221834
5.169424875,131072285,3.266,-9.176,-0.578,0.000,0.000,0.000,-222575
5.174716958,131077505,3.266,-9.176,-0.578,0.000,0.000,0.000,-222486
5.179096458,131081726,3.266,-9.176,-0.578,0.000,0.000,0.000,-222455
5.183074958,131085946,3.266,-9.176,-0.578,0.000,0.000,0.000,-222265
5.188260292,131091167,3.266,-9.176,-0.578,0.000,0.000,0.000,-223386
5.192411208,131095387,3.266,-9.133,-0.617,0.000,0.000,0.000,-222160
5.195640458,131098607,3.266,-9.133,-0.617,0.000,0.000,0.000,-221922
5.202020083,131104828,3.266,-9.133,-0.617,0.000,0.000,0.000,-222915
5.208266667,131111048,3.266,-9.133,-0.617,0.000,0.000,0.000,-223459
5.211594708,131114268,3.266,-9.133,-0.617,0.000,0.000,0.000,-223065
5.215551375,131118488,3.266,-9.133,-0.617,0.000,0.000,0.000,-222797
5.219811,131122708,3.266,-9.133,-0.617,0.000,0.000,0.000,-223026
5.225024417,131127929,3.227,-9.137,-0.617,0.000,0.000,0.000,-222733
5.228229042,131131149,3.227,-9.137,-0.617,0.000,0.000,0.000,-223603
5.233453333,131136369,3.227,-9.137,-0.617,0.000,0.000,0.000,-223188
5.237677708,131140590,3.227,-9.137,-0.617,0.000,0.000,0.000,-222557
5.240873292,131143810,3.227,-9.137,-0.617,0.000,0.000,0.000,-223331
5.245202292,131148033,3.227,-9.137,-0.617,0.000,0.000,0.000,-222799
5.248334458,131151254,3.227,-9.137,-0.617,0.000,0.000,0.000,-221645
5.252702125,131155475,3.305,-9.133,-0.617,0.000,0.000,0.000,-222277
5.255787958,131158696,3.305,-9.133,-0.617,0.000,0.000,0.000,-222753
5.260993458,131163917,3.305,-9.133,-0.617,0.000,0.000,0.000,-223370
5.265221875,131168140,3.305,-9.133,-0.617,0.000,0.000,0.000,-222196
5.269514833,131172360,3.305,-9.133,-0.617,0.000,0.000,0.000,-222140
5.274677333,131177581,3.305,-9.133,-0.617,0.000,0.000,0.000,-222047
5.278897417,131181802,3.305,-9.133,-0.617,0.000,0.000,0.000,-221977
5.282098958,131185023,3.266,-9.133,-0.617,0.000,0.000,0.000,-222233
5.284432333,131187243,3.266,-9.133,-0.617,0.000,0.000,0.000,-222737
5.288532458,131191463,3.266,-9.133,-0.617,0.000,0.000,0.000,-222917
5.292784792,131195684,3.266,-9.133,-0.617,0.000,0.000,0.000,-223193
5.297046958,131199904,3.266,-9.133,-0.617,0.000,0.000,0.000,-222592
5.301357542,131204125,3.266,-9.133,-0.617,0.000,0.000,0.000,-222126
5.306674583,131209345,3.266,-9.133,-0.617,0.000,0.000,0.000,-223803
5.309899292,131212566,3.227,-9.137,-0.578,0.000,0.000,0.000,-222636
5.3121015,131214786,3.227,-9.137,-0.578,0.000,0.000,0.000,-220876
5.317223542,131220006,3.227,-9.137,-0.578,0.000,0.000,0.000,-222008
5.321277292,131224226,3.227,-9.137,-0.578,0.000,0.000,0.000,-222790
5.326571375,131229447,3.227,-9.137,-0.578,0.000,0.000,0.000,-223323
5.330792875,131233667,3.227,-9.137,-0.578,0.000,0.000,0.000,-222392
5.335977583,131238888,3.227,-9.137,-0.578,0.000,0.000,0.000,-222648
5.33923,131242108,3.266,-9.176,-0.617,0.000,0.000,0.000,-222827
5.341545292,131244329,3.266,-9.176,-0.617,0.000,0.000,0.000,-222970
5.34685725,131249549,3.266,-9.176,-0.617,0.000,0.000,0.000,-222433
5.351596542,131253771,3.266,-9.176,-0.617,0.000,0.000,0.000,-222615
5.356052375,131258991,3.266,-9.176,-0.617,0.000,0.000,0.000,-222952
5.359245208,131262212,3.266,-9.176,-0.500,0.000,0.000,0.000,-223533
5.361520083,131264433,3.266,-9.176,-0.500,0.000,0.000,0.000,-221796
5.366744958,131269654,3.266,-9.176,-0.500,0.000,0.000,0.000,-222499
5.370957875,131273875,3.266,-9.176,-0.500,0.000,0.000,0.000,-222586
5.375174167,131278096,3.266,-9.176,-0.500,0.000,0.000,0.000,-222500
5.379355208,131282316,3.266,-9.176,-0.500,0.000,0.000,0.000,-222823
5.384634833,131287536,3.266,-9.176,-0.500,0.000,0.000,0.000,-222812
5.388861625,131291757,3.266,-9.133,-0.617,0.000,0.000,0.000,-223594
5.392121417,131294978,3.266,-9.133,-0.617,0.000,0.000,0.000,-222853
5.398327458,131301198,3.266,-9.133,-0.617,0.000,0.000,0.000,-222555
5.402592333,131305419,3.266,-9.133,-0.617,0.000,0.000,0.000,-222482
5.406792917,131309640,3.266,-9.133,-0.617,0.000,0.000,0.000,-223149
5.412096625,131314860,3.266,-9.133,-0.617,0.000,0.000,0.000,-222784
5.416318083,131319081,3.266,-9.133,-0.617,0.000,0.000,0.000,-222270
5.419762375,131322302,3.227,-9.137,-0.539,0.000,0.000,0.000,-221761
5.421988083,131324522,3.227,-9.137,-0.539,0.000,0.000,0.000,-223438
5.4257865,131328742,3.227,-9.137,-0.539,0.000,0.000,0.000,-223362
5.430040583,131332962,3.227,-9.137,-0.539,0.000,0.000,0.000,-222842
5.434278125,131337183,3.227,-9.137,-0.539,0.000,0.000,0.000,-221725
5.43850425,131341404,3.227,-9.137,-0.539,0.000,0.000,0.000,-222621
5.44166575,131344624,3.227,-9.137,-0.539,0.000,0.000,0.000,-222774
5.445963042,131348844,3.266,-9.133,-0.578,0.000,0.000,0.000,-222216
5.449174417,131352064,3.266,-9.133,-0.578,0.000,0.000,0.000,-222246
5.455516292,131358284,3.266,-9.133,-0.578,0.000,0.000,0.000,-223198
5.459584917,131362504,3.266,-9.133,-0.578,0.000,0.000,0.000,-223165
5.463870667,131366725,3.266,-9.133,-0.578,0.004,-0.004,0.002,-223094
5.469042958,131371946,3.266,-9.133,-0.578,0.004,0.000,0.012,-222059
5.473289542,131376167,3.266,-9.133,-0.578,0.002,0.014,-0.006,-222700
5.47754575,131380388,3.227,-9.098,-0.617,0.002,0.014,-0.006,-222057
5.479745292,131382609,3.227,-9.098,-0.617,0.010,0.000,-0.008,-222137
5.484963958,131387832,3.227,-9.098,-0.617,-0.004,0.000,0.006,-222798
5.489145958,131392052,3.227,-9.098,-0.617,-0.008,0.004,0.000,-223062
5.493364208,131396273,3.227,-9.098,-0.617,0.002,0.000,0.006,-223299
5.498644667,131401493,3.227,-9.098,-0.617,0.006,0.002,0.016,-222007
5.503041667,131405714,3.227,-9.098,-0.617,-0.002,-0.002,0.000,-222196
5.507073667,131409935,3.266,-9.176,-0.500,-0.002,-0.002,0.000,-223354
5.510315958,131413157,3.266,-9.176,-0.500,0.008,0.004,-0.002,-222320
5.516521458,131419378,3.266,-9.176,-0.500,0.002,0.006,0.012,-221973
5.520684542,131423598,3.266,-9.176,-0.500,0.000,-0.004,-0.006,-222414
5.523921625,131426819,3.266,-9.176,-0.500,0.002,0.004,0.012,-223587
5.528240583,131431040,3.266,-9.176,-0.500,0.008,-0.002,-0.002,-223340
5.53236925,131435261,3.266,-9.176,-0.500,-0.008,0.000,0.010,-222460
5.537750125,131440482,3.227,-9.172,-0.617,-0.008,0.000,0.010,-222349
5.541064375,131443703,3.227,-9.172,-0.617,0.002,0.004,-0.008,-223305
5.546262333,131448924,3.227,-9.172,-0.617,0.002,0.000,0.000,-222181
5.550896875,131453145,3.227,-9.172,-0.617,-0.002,0.006,0.006,-221750
5.554412042,131457366,3.227,-9.172,-0.617,0.006,0.000,0.004,-222841
5.558723917,131461587,3.227,-9.172,-0.617,0.000,0.000,0.002,-223128
5.562017167,131464808,3.227,-9.172,-0.617,0.002,0.012,0.000,-222991
5.566178667,131469030,3.266,-9.094,-0.656,0.002,0.012,0.000,-222358
5.569475625,131472251,3.266,-9.094,-0.656,0.004,0.002,0.008,-222681
5.575877667,131478472,3.266,-9.094,-0.656,-0.006,0.000,-0.002,-222275
5.580033958,131482693,3.266,-9.094,-0.656,0.004,0.000,-0.002,-222833
5.584748125,131486914,3.266,-9.094,-0.656,-0.012,-0.004,0.023,-222857
5.589264625,131492135,3.266,-9.094,-0.656,0.000,0.004,-0.010,-222912
5.593395542,131496356,3.266,-9.094,-0.656,-0.012,0.010,0.000,-223006
5.598706,131501577,3.266,-9.133,-0.539,-0.012,0.010,0.000,-222393
5.600845,131503798,3.266,-9.133,-0.539,-0.006,0.002,0.002,-221740
5.606143792,131509019,3.266,-9.133,-0.539,-0.008,0.002,0.002,-222979
5.61044825,131513240,3.266,-9.133,-0.578,-0.008,0.002,0.002,-223258
5.612815292,131515461,3.266,-9.133,-0.578,0.000,0.002,0.014,-222053
5.617107833,131519682,3.266,-9.133,-0.578,-0.002,-0.008,0.006,-221802
5.621154042,131523903,3.266,-9.133,-0.578,0.006,0.004,0.012,-223177
5.625194667,131528124,3.266,-9.133,-0.578,0.008,-0.006,-0.002,-223254
5.6294435,131532345,3.266,-9.133,-0.578,-0.008,-0.008,0.004,-222153
5.634692792,131537566,3.266,-9.133,-0.578,-0.014,0.006,-0.008,-222160
5.638856542,131541787,3.266,-9.133,-0.500,-0.014,0.006,-0.008,-223901
5.641080625,131544008,3.266,-9.133,-0.500,0.002,-0.004,0.006,-222441
5.645413792,131548229,3.266,-9.133,-0.500,0.000,-0.002,0.010,-222365
5.649540917,131552450,3.266,-9.133,-0.500,0.010,0.000,-0.004,-222433
5.65396275,131556671,3.266,-9.133,-0.500,0.004,0.004,-0.008,-222728
5.658985042,131561892,3.266,-9.133,-0.500,-0.008,0.006,0.004,-224254
5.66323375,131566113,3.266,-9.133,-0.500,0.012,0.004,-0.002,-222732
5.668436125,131571334,3.227,-9.133,-0.691,0.012,0.004,-0.002,-222242
5.671656458,131574555,3.227,-9.133,-0.691,-0.002,0.000,0.004,-223663
5.677932167,131580776,3.227,-9.133,-0.691,0.000,0.004,0.000,-222446
5.682120833,131584997,3.227,-9.133,-0.691,-0.004,0.004,0.002,-222624
5.686309,131589218,3.227,-9.133,-0.691,-0.002,-0.006,0.012,-222089
5.690594583,131593439,3.227,-9.133,-0.691,-0.002,0.000,-0.008,-222725
5.6957375,131598660,3.227,-9.133,-0.691,0.002,-0.008,0.004,-222460
5.699030917,131601881,3.266,-9.133,-0.617,0.002,-0.008,0.004,-222663
5.70130825,131604102,3.266,-9.133,-0.617,-0.004,-0.002,0.000,-222759
5.706441125,131609323,3.266,-9.133,-0.617,0.000,0.000,0.010,-222724
5.710654583,131613544,3.266,-9.133,-0.617,0.010,0.006,0.004,-222819
5.717224,131619765,3.266,-9.133,-0.617,0.002,-0.002,-0.002,-222301
5.721071667,131623986,3.266,-9.133,-0.617,-0.004,-0.008,0.002,-222321
5.725347583,131628207,3.266,-9.133,-0.617,-0.016,0.008,0.000,-222593
5.729661917,131632428,3.266,-9.176,-0.617,-0.016,0.008,0.000,-222567
5.732725792,131635649,3.266,-9.176,-0.617,-0.008,-0.004,0.002,-222193
5.738898625,131641870,3.266,-9.176,-0.617,0.004,0.002,0.018,-222554
5.744418708,131647091,3.266,-9.176,-0.617,0.002,0.000,0.004,-222798
5.748433208,131651312,3.266,-9.176,-0.617,0.006,0.000,0.000,-222167
5.752705958,131655533,3.266,-9.176,-0.617,0.000,-0.006,0.004,-222478
5.756955333,131659754,3.266,-9.176,-0.617,-0.004,-0.012,0.000,-222979
5.761096833,131663975,3.227,-9.176,-0.691,-0.004,-0.012,0.000,-222704
5.76427025,131667196,3.227,-9.176,-0.691,-0.004,0.004,-0.012,-222080
5.770035625,131672417,3.227,-9.176,-0.691,0.004,0.000,0.002,-222874
5.773989167,131676637,3.227,-9.176,-0.691,-0.008,0.012,0.004,-222965
5.778196417,131680858,3.227,-9.176,-0.691,-0.006,-0.004,-0.014,-222250
5.782431625,131685079,3.227,-9.176,-0.691,0.002,0.008,0.006,-222814
5.786732833,131689300,3.227,-9.176,-0.691,-0.004,0.000,0.002,-222689
5.790733375,131693521,3.266,-9.133,-0.578,-0.004,0.000,0.002,-223103
5.793875083,131696742,3.266,-9.133,-0.578,0.006,-0.002,0.002,-222762
5.800319333,131702963,3.266,-9.133,-0.578,0.012,-0.004,0.002,-222819
5.804820208,131707184,3.266,-9.133,-0.578,0.004,0.006,-0.006,-223391
5.809750292,131712405,3.266,-9.133,-0.578,0.004,0.004,-0.008,-222618
5.814075125,131716626,3.266,-9.133,-0.578,-0.008,-0.002,0.002,-222349
5.819040792,131721847,3.266,-9.133,-0.578,-0.004,0.006,0.002,-222459
5.82214275,131725068,3.227,-9.172,-0.617,-0.004,0.006,0.002,-223133
5.826370458,131729289,3.227,-9.172,-0.617,-0.004,-0.004,0.012,-222482
5.830604667,131733510,3.227,-9.137,-0.539,-0.004,-0.004,0.012,-222366
5.836821708,131739731,3.227,-9.137,-0.539,0.004,0.000,0.000,-222680
5.841043583,131743951,3.227,-9.137,-0.539,-0.004,-0.006,-0.008,-223129
5.845374542,131748172,3.227,-9.137,-0.539,0.000,0.002,-0.002,-222979
5.851670833,131753393,3.227,-9.137,-0.539,-0.010,-0.006,0.010,-222838
5.854728292,131757614,3.227,-9.137,-0.539,0.008,0.004,-0.008,-222848
5.858948667,131761835,3.227,-9.137,-0.578,0.008,0.004,-0.008,-222809
5.862150292,131765056,3.227,-9.137,-0.578,-0.004,0.002,0.010,-222654
5.867387708,131770277,3.227,-9.137,-0.578,-0.008,-0.002,0.002,-221894
5.871646958,131774498,3.227,-9.137,-0.578,-0.012,0.000,-0.008,-223712
5.87582925,131778719,3.227,-9.137,-0.578,0.010,0.010,0.000,-222634
5.880012208,131782940,3.227,-9.137,-0.578,-0.004,0.014,0.006,-222351
5.884518375,131787161,3.266,-9.176,-0.578,-0.004,0.014,0.006,-223023
5.887499833,131790382,3.266,-9.176,-0.578,0.000,0.002,-0.008,-222654
5.892703208,131795603,3.266,-9.176,-0.578,-0.004,-0.008,0.012,-222945
5.897982292,131800825,3.266,-9.176,-0.578,0.000,0.006,0.000,-222462
5.902146875,131805045,3.266,-9.176,-0.578,-0.002,-0.008,-0.008,-221948
5.907345,131810266,3.266,-9.176,-0.578,-0.004,0.004,0.016,-223078
5.912645708,131815487,3.266,-9.176,-0.578,0.002,0.014,-0.006,-222643
5.918065958,131820708,3.266,-9.133,-0.578,0.002,0.014,-0.006,-221934
5.921089625,131823914,3.266,-9.133,-0.578,-0.014,-0.006,-0.002,-221934
5.926203875,131829134,3.266,-9.133,-0.578,-0.008,0.004,-0.002,-222664
5.930531625,131833355,3.266,-9.133,-0.578,-0.002,-0.006,0.008,-222215
5.934804292,131837576,3.266,-9.133,-0.578,0.008,0.002,-0.002,-222594
5.9398275,131842797,3.266,-9.133,-0.578,0.000,0.000,0.020,-222619
5.944167458,131847018,3.266,-9.133,-0.578,-0.004,0.000,0.006,-222727
5.948322958,131851239,3.305,-9.133,-0.617,-0.004,0.000,0.006,-222186
5.950586667,131853460,3.305,-9.133,-0.617,-0.008,0.002,-0.018,-221456
5.956838917,131859681,3.305,-9.133,-0.617,-0.008,-0.002,-0.006,-223530
5.960989458,131863902,3.305,-9.133,-0.617,0.008,-0.008,0.002,-223329
5.965148292,131868123,3.305,-9.133,-0.617,-0.008,0.016,0.002,-222330
5.969471333,131872344,3.305,-9.133,-0.617,-0.004,-0.006,0.000,-222577
5.974954083,131877565,3.305,-9.133,-0.617,-0.004,0.004,0.000,-222569
5.978882333,131881786,3.227,-9.137,-0.578,-0.004,0.004,0.000,-222218
5.982395292,131885007,3.227,-9.137,-0.578,-0.002,0.004,-0.006,-222885
5.987301417,131890228,3.227,-9.137,-0.578,0.002,-0.004,0.000,-222398
5.992540875,131895449,3.227,-9.137,-0.578,-0.010,0.006,0.000,-223391
5.996778792,131899670,3.227,-9.137,-0.578,0.002,0.004,-0.012,-222573
6.002031083,131904891,3.227,-9.137,-0.578,-0.002,0.008,0.006,-222166
6.006194042,131909112,3.227,-9.137,-0.578,-0.002,-0.012,0.004,-222846
6.010393083,131913333,3.227,-9.172,-0.617,-0.002,-0.012,0.004,-222878
6.012612917,131915554,3.227,-9.172,-0.617,0.004,0.006,-0.004,-222325
6.017868292,131920775,3.227,-9.172,-0.617,-0.004,0.008,0.000,-222791
6.022057958,131924996,3.227,-9.172,-0.617,0.000,-0.006,0.010,-222888
6.026281083,131929217,3.227,-9.172,-0.617,0.004,0.002,-0.002,-222899
6.030528,131933438,3.227,-9.172,-0.617,-0.004,0.000,0.000,-221930
6.034770917,131937659,3.227,-9.172,-0.617,-0.006,-0.004,-0.012,-222513
6.039993083,131942880,3.266,-9.133,-0.578,-0.006,-0.004,-0.012,-222927
6.04319825,131946101,3.266,-9.133,-0.578,0.021,0.004,0.010,-222681
6.049411125,131952322,3.266,-9.133,-0.578,0.002,0.004,0.002,-222042
6.053626792,131956543,3.266,-9.133,-0.578,0.004,-0.004,-0.002,-222976
6.057868333,131960764,3.266,-9.133,-0.578,0.004,0.000,0.002,-223162
6.062064667,131964987,3.266,-9.133,-0.578,0.002,0.004,0.000,-222410
6.067316875,131970208,3.266,-9.133,-0.578,0.014,0.002,-0.018,-222542
6.071648958,131974429,3.266,-9.211,-0.656,0.014,0.002,-0.018,-222356
6.074789292,131977650,3.266,-9.211,-0.656,0.002,0.004,0.012,-222871
6.080967625,131983871,3.266,-9.211,-0.656,0.000,0.002,0.006,-222041
6.085507417,131988092,3.266,-9.211,-0.656,0.000,-0.010,-0.012,-222610
6.089395625,131992313,3.266,-9.211,-0.656,0.000,0.004,0.006,-222500
6.094760167,131997534,3.266,-9.211,-0.656,0.004,-0.006,0.000,-222968
6.098871458,132001755,3.266,-9.211,-0.656,0.000,0.004,-0.010,-223229
6.103124542,132005976,3.305,-9.133,-0.578,0.000,0.004,-0.010,-222833
6.10538575,132008197,3.305,-9.133,-0.578,0.000,-0.006,-0.006,-222605
6.109678375,132012418,3.305,-9.133,-0.578,0.002,0.000,-0.014,-223188
6.114125333,132016639,3.305,-9.133,-0.578,-0.006,0.004,0.004,-222402
6.118997708,132021860,3.305,-9.133,-0.578,-0.004,0.002,0.002,-222725
6.123132583,132026081,3.305,-9.133,-0.578,-0.002,-0.008,-0.012,-222165
6.127382583,132030302,3.305,-9.133,-0.578,-0.002,-0.004,0.006,-222642
6.131572792,132034523,3.266,-9.176,-0.539,-0.002,-0.004,0.006,-222082
6.13483475,132037745,3.266,-9.176,-0.539,-0.004,0.000,0.000,-222636
6.1415415,132043966,3.266,-9.176,-0.539,-0.002,-0.006,-0.006,-223449
6.146269792,132049187,3.266,-9.176,-0.539,0.002,0.002,0.014,-222260
6.149753625,132052408,3.266,-9.133,-0.617,0.002,0.002,0.014,-223145
6.151718167,132054629,3.266,-9.133,-0.617,-0.008,-0.004,-0.004,-222724
6.156942292,132059850,3.266,-9.133,-0.617,0.000,0.000,0.000,-222399
6.161163167,132064070,3.266,-9.133,-0.617,0.004,-0.006,0.000,-223015
6.165380875,132068291,3.266,-9.133,-0.617,-0.006,0.008,0.010,-222826
6.169576625,132072497,3.266,-9.133,-0.617,0.002,-0.002,-0.004,-222826
6.173880208,132076717,3.266,-9.133,-0.617,0.000,0.004,-0.008,-223192
6.178026917,132080938,3.227,-9.137,-0.578,0.000,0.004,-0.008,-223293
6.181239,132084159,3.227,-9.137,-0.578,0.002,0.000,0.002,-222805
6.18805475,132090380,3.227,-9.137,-0.578,0.006,0.006,0.004,-221941
6.191700125,132094600,3.227,-9.137,-0.578,0.002,0.006,-0.010,-222860
6.196932083,132099823,3.227,-9.137,-0.578,0.002,-0.008,0.004,-222871
6.201175708,132104043,3.227,-9.137,-0.578,0.000,0.006,0.004,-222008
6.20539625,132108264,3.227,-9.137,-0.578,0.008,0.002,-0.010,-222580
6.209603292,132112485,3.266,-9.133,-0.578,0.008,0.002,-0.010,-222872
6.21189775,132114706,3.266,-9.133,-0.578,-0.010,0.004,-0.002,-222304
6.218685833,132120927,3.266,-9.133,-0.578,-0.002,0.002,0.004,-223468
6.222636833,132125148,3.266,-9.133,-0.578,0.000,-0.006,0.006,-222995
6.226458792,132129369,3.266,-9.133,-0.578,0.010,0.000,0.002,-222501
6.230708667,132133590,3.266,-9.133,-0.578,0.002,0.004,0.002,-222684
6.235908167,132138812,3.266,-9.133,-0.578,-0.004,0.000,0.006,-223177
6.240114542,132143032,3.227,-9.137,-0.617,-0.004,0.000,0.006,-223069
6.243394875,132146253,3.227,-9.137,-0.617,0.002,0.004,0.002,-222350
6.248555458,132151474,3.227,-9.137,-0.617,-0.004,0.008,0.000,-222184
6.252870792,132155695,3.227,-9.137,-0.617,0.002,0.000,0.004,-222547
6.258044708,132160916,3.227,-9.137,-0.617,-0.008,0.000,-0.002,-222616
6.262232375,132165137,3.227,-9.137,-0.617,-0.004,0.008,0.008,-221884
6.26651375,132169359,3.227,-9.137,-0.617,-0.002,0.002,-0.004,-222037
6.269637833,132172580,3.227,-9.098,-0.578,-0.002,0.002,-0.004,-221947
6.271896583,132174801,3.227,-9.098,-0.578,0.008,-0.010,-0.006,-222989
6.277224583,132180023,3.227,-9.098,-0.578,-0.002,-0.006,-0.018,-222380
6.281326958,132184244,3.227,-9.098,-0.578,0.004,0.006,0.008,-222482
6.286822083,132189465,3.227,-9.098,-0.578,0.006,0.012,-0.016,-221749
6.2907345,132193686,3.227,-9.098,-0.578,0.008,-0.008,0.014,-222729
6.296978125,132199907,3.227,-9.098,-0.578,0.002,0.002,-0.006,-222606
6.301235417,132204128,3.266,-9.133,-0.578,0.002,0.002,-0.006,-222859
6.303674125,132206349,3.266,-9.133,-0.578,-0.010,0.002,0.012,-222110
6.307606083,132210570,3.266,-9.133,-0.578,0.006,0.004,0.002,-223052
6.31180725,132214791,3.266,-9.133,-0.578,0.000,0.002,0.006,-222931
6.317148875,132220012,3.266,-9.133,-0.578,-0.002,0.000,-0.012,-222975
6.321279542,132224233,3.266,-9.133,-0.578,0.004,0.008,0.002,-221881
6.325601708,132228454,3.266,-9.133,-0.578,-0.002,-0.008,0.006,-223090
6.328804417,132231675,3.266,-9.176,-0.539,-0.002,-0.008,0.006,-222941
6.331045667,132233896,3.266,-9.176,-0.539,0.004,-0.004,0.004,-222594
6.336290167,132239117,3.266,-9.176,-0.539,0.000,0.012,0.012,-222758
6.341694917,132244337,3.266,-9.176,-0.539,0.002,0.006,0.000,-223474
6.344912,132247558,3.266,-9.176,-0.539,-0.002,0.008,-0.012,-222791
6.351127625,132252779,3.266,-9.176,-0.539,-0.010,0.002,0.014,-222093
6.3550625,132258000,3.266,-9.176,-0.539,-0.016,-0.004,0.004,-222677
6.36028375,132263221,3.266,-9.133,-0.578,-0.016,-0.004,0.004,-222916
6.363489292,132266442,3.266,-9.133,-0.578,-0.006,-0.006,0.006,-222436
6.368792,132271663,3.266,-9.133,-0.578,-0.004,-0.004,0.004,-223138
6.372975667,132275884,3.266,-9.133,-0.578,0.008,0.000,0.014,-222239
6.378315125,132281105,3.266,-9.133,-0.578,0.000,0.006,-0.006,-222991
6.382497417,132285326,3.266,-9.133,-0.578,0.010,-0.006,0.000,-222709
6.386658625,132289547,3.266,-9.133,-0.578,0.000,-0.002,0.006,-222336
6.389910125,132292768,3.305,-9.094,-0.617,0.000,-0.002,0.006,-222924
6.393106958,132295989,3.305,-9.094,-0.617,-0.002,-0.008,0.014,-223289
6.399350458,132302210,3.305,-9.094,-0.617,-0.002,0.002,-0.014,-222944
6.403585167,132306431,3.305,-9.094,-0.617,0.000,-0.006,-0.018,-222101
6.407894833,132310652,3.305,-9.094,-0.617,0.004,-0.006,-0.004,-223235
6.412111,132314873,3.305,-9.094,-0.617,-0.002,0.004,0.008,-223291
6.417460167,132320094,3.266,-9.133,-0.617,-0.002,0.004,0.008,-222194
6.420425708,132322315,3.266,-9.133,-0.617,0.002,0.002,0.000,-222958
6.424642292,132327536,3.266,-9.133,-0.617,0.006,-0.002,-0.004,-223247
6.428829208,132331757,3.266,-9.133,-0.617,-0.002,0.000,0.002,-222329
6.433081167,132335978,3.266,-9.133,-0.617,-0.002,-0.004,0.002,-222035
6.43736825,132340199,3.266,-9.133,-0.617,-0.010,0.004,0.006,-221931
6.441570667,132344420,3.266,-9.133,-0.617,-0.008,0.002,-0.006,-222962
6.444698458,132347641,3.266,-9.133,-0.617,-0.008,0.002,-0.006,-223143
6.447021958,132349862,3.266,-9.133,-0.617,-0.006,-0.010,0.002,-222616
6.452950167,132355083,3.266,-9.133,-0.617,-0.002,0.010,0.020,-223405
6.456370417,132359304,3.266,-9.133,-0.617,0.004,0.000,-0.002,-223215
6.461625958,132364525,3.266,-9.133,-0.617,-0.004,-0.006,-0.004,-223366
6.465907583,132368746,3.266,-9.133,-0.617,-0.002,0.004,0.002,-223080
6.470027958,132372967,3.266,-9.133,-0.617,0.002,0.006,0.002,-221922
6.47431625,132377188,3.266,-9.133,-0.578,0.002,0.006,0.002,-223423
6.477913292,132380409,3.266,-9.133,-0.578,-0.018,0.002,-0.008,-222160
6.4830115,132385630,3.266,-9.133,-0.578,-0.002,-0.006,-0.004,-222285
6.486964125,132389851,3.266,-9.133,-0.578,-0.008,-0.004,0.006,-222598
6.490146167,132393072,3.266,-9.133,-0.578,0.010,0.002,-0.010,-222333
6.495425792,132398293,3.266,-9.133,-0.578,0.008,-0.004,-0.002,-222545
6.500664542,132403514,3.266,-9.133,-0.578,-0.002,0.000,0.004,-222907
6.504911667,132407735,3.305,-9.176,-0.539,-0.002,0.000,0.004,-222043
6.508085917,132410956,3.305,-9.176,-0.539,-0.010,0.002,-0.002,-223298
6.514301417,132417177,3.305,-9.176,-0.539,0.004,-0.012,0.004,-223092
6.520015333,132422398,3.305,-9.176,-0.539,-0.008,0.004,0.012,-222168
6.523771083,132426619,3.305,-9.176,-0.539,0.004,0.000,0.000,-222841
6.527950042,132430840,3.305,-9.176,-0.539,-0.012,-0.004,0.002,-223740
6.532214125,132435061,3.305,-9.176,-0.539,0.002,-0.006,0.000,-222128
6.537528292,132440282,3.227,-9.137,-0.617,0.002,-0.006,0.000,-222849
6.54084125,132443503,3.227,-9.137,-0.617,-0.004,0.000,0.004,-222198
6.546064542,132448724,3.227,-9.137,-0.617,-0.006,0.004,0.002,-222697
6.549370292,132451945,3.227,-9.137,-0.617,-0.012,0.004,-0.012,-222713
6.55334975,132456166,3.227,-9.137,-0.617,0.014,0.004,-0.012,-221820
6.558500292,132461387,3.227,-9.137,-0.617,0.004,0.004,0.000,-223580
6.562754167,132465608,3.227,-9.137,-0.617,0.000,0.002,0.008,-222106
6.566880125,132469829,3.227,-9.137,-0.578,0.000,0.002,0.008,-222137
6.570106417,132473050,3.227,-9.137,-0.578,-0.002,0.004,0.002,-221686
6.576549708,132479271,3.227,-9.137,-0.578,-0.004,0.002,-0.002,-222884
6.580935333,132483492,3.227,-9.137,-0.578,-0.004,0.000,0.018,-222633
6.585906625,132487713,3.227,-9.137,-0.578,-0.002,-0.002,-0.002,-223109
6.58904025,132491934,3.227,-9.137,-0.578,0.002,0.000,0.000,-222899
6.592280375,132495155,3.227,-9.137,-0.578,-0.010,0.000,0.006,-223336
6.596583958,132499376,3.266,-9.133,-0.617,-0.010,0.000,0.006,-222520
6.599789708,132502597,3.266,-9.133,-0.617,0.006,0.000,-0.004,-222753
6.605227167,132507818,3.266,-9.133,-0.617,0.008,-0.004,-0.014,-222647
6.610430333,132513039,3.266,-9.133,-0.617,0.008,0.008,-0.002,-222169
6.614636792,132517260,3.266,-9.133,-0.617,-0.002,0.004,0.002,-222083
6.619972417,132522481,3.266,-9.133,-0.617,0.000,0.012,-0.006,-222607
6.623967708,132526702,3.227,-9.172,-0.578,0.000,0.012,-0.006,-223041
6.627026708,132529923,3.227,-9.172,-0.578,-0.004,-0.004,0.004,-222482
6.63230975,132535144,3.227,-9.172,-0.578,-0.014,0.004,0.000,-222273
6.637503958,132540365,3.227,-9.172,-0.578,0.010,0.002,0.004,-221872
6.641801958,132544586,3.227,-9.172,-0.578,-0.014,0.006,0.010,-223416
6.647122583,132549807,3.227,-9.172,-0.578,-0.008,0.004,-0.008,-223367
6.652506833,132555028,3.227,-9.172,-0.578,0.004,-0.002,0.006,-222972
6.659412458,132562249,3.305,-9.133,-0.539,0.004,-0.002,0.006,-223181
6.662561,132565470,3.305,-9.133,-0.539,-0.002,0.004,-0.006,-222794
6.667815625,132570676,3.305,-9.133,-0.539,-0.002,0.002,-0.006,-222794
6.672028417,132574896,3.305,-9.133,-0.539,-0.010,-0.004,0.004,-222347
6.677360458,132580117,3.305,-9.133,-0.539,0.000,0.000,0.000,-222972
6.681469792,132584338,3.305,-9.133,-0.539,0.000,0.000,0.000,-221753
6.686047167,132588559,3.305,-9.133,-0.539,0.000,0.000,0.000,-223198
6.689893083,132592779,3.227,-9.137,-0.617,0.000,0.000,0.000,-222527
6.692098292,132594999,3.227,-9.137,-0.617,0.000,0.000,0.000,-223426
6.698850792,132601220,3.227,-9.137,-0.617,0.000,0.000,0.000,-222599
6.702625333,132605441,3.227,-9.137,-0.617,0.000,0.000,0.000,-222101
6.706883708,132609661,3.227,-9.137,-0.617,0.000,0.000,0.000,-222441
6.712122125,132614882,3.227,-9.137,-0.617,0.000,0.000,0.000,-222301
6.718245125,132621103,3.227,-9.137,-0.617,0.000,0.000,0.000,-222740
6.722490583,132625324,3.266,-9.133,-0.578,0.000,0.000,0.000,-222067
6.7256275,132628545,3.266,-9.133,-0.578,0.000,0.000,0.000,-222572
6.730979375,132633765,3.266,-9.133,-0.578,0.000,0.000,0.000,-222449
6.735204167,132637986,3.266,-9.133,-0.578,0.000,0.000,0.000,-222438
6.740280917,132643206,3.266,-9.133,-0.578,0.000,0.000,0.000,-223039
6.745419708,132647426,3.266,-9.133,-0.578,0.000,0.000,0.000,-221701
6.74884675,132651646,3.266,-9.133,-0.578,0.000,0.000,0.000,-222558
6.752118417,132654867,3.227,-9.172,-0.539,0.000,0.000,0.000,-222680
6.755231958,132658087,3.227,-9.172,-0.539,0.000,0.000,0.000,-222769
6.761528375,132664307,3.227,-9.172,-0.539,0.000,0.000,0.000,-222816
6.765873125,132668528,3.227,-9.172,-0.539,0.000,0.000,0.000,-222234
6.76997325,132672748,3.227,-9.172,-0.539,0.000,0.000,0.000,-221721
6.775255458,132677968,3.227,-9.172,-0.539,0.000,0.000,0.000,-222309
6.780597083,132683189,3.227,-9.172,-0.539,0.000,0.000,0.000,-222409
6.784870042,132687410,3.305,-9.133,-0.617,0.000,0.000,0.000,-222903
6.787801333,132690631,3.305,-9.133,-0.617,0.000,0.000,0.000,-222796
6.793019042,132695852,3.305,-9.133,-0.617,0.000,0.000,0.000,-222913
6.798302042,132701073,3.305,-9.133,-0.617,0.000,0.000,0.000,-223098
6.802999333,132705293,3.305,-9.133,-0.617,0.000,0.000,0.000,-222656
6.806873333,132709514,3.305,-9.133,-0.617,0.000,0.000,0.000,-222700
6.81108425,132713735,3.305,-9.133,-0.617,0.000,0.000,0.000,-222101
6.815247083,132717956,3.227,-9.137,-0.578,0.000,0.000,0.000,-222583
6.817222083,132720177,3.227,-9.137,-0.578,0.000,0.000,0.000,-222127
6.822463875,132725397,3.227,-9.137,-0.578,0.000,0.000,0.000,-223191
6.826712375,132729618,3.227,-9.137,-0.578,0.000,0.000,0.000,-222431
6.829951833,132732839,3.227,-9.137,-0.578,0.000,0.000,0.000,-222880
6.834199375,132737059,3.227,-9.137,-0.578,0.000,0.000,0.000,-222607
6.839399167,132742279,3.227,-9.137,-0.578,0.000,0.000,0.000,-222676
6.842594083,132745500,3.227,-9.137,-0.578,0.000,0.000,0.000,-223266
6.84798975,132750720,3.227,-9.137,-0.578,0.000,0.000,0.000,-223228
6.852758667,132754940,3.227,-9.137,-0.578,0.000,0.000,0.000,-222876
6.856230125,132759161,3.227,-9.137,-0.578,0.000,0.000,0.000,-222514
6.860495042,132763381,3.227,-9.137,-0.578,0.000,0.000,0.000,-222936
6.864672042,132767601,3.227,-9.137,-0.578,0.000,0.000,0.000,-222708
6.868044167,132770821,3.227,-9.137,-0.656,0.000,0.000,0.000,-221916
6.870128042,132773042,3.227,-9.137,-0.656,0.000,0.000,0.000,-222558
6.875390917,132778262,3.227,-9.137,-0.656,0.000,0.000,0.000,-223350
6.880560542,132783483,3.227,-9.137,-0.656,0.000,0.000,0.000,-222179
6.884874375,132787703,3.227,-9.137,-0.656,0.000,0.000,0.000,-222666
6.889041167,132791924,3.227,-9.137,-0.617,0.000,0.000,0.000,-222606
6.891269167,132794145,3.227,-9.137,-0.617,0.000,0.000,0.000,-222765
6.896175167,132798366,3.227,-9.137,-0.617,0.000,0.000,0.000,-221514
6.899729708,132802586,3.227,-9.137,-0.617,0.000,0.000,0.000,-222211
6.9040025,132806807,3.227,-9.137,-0.617,0.000,0.000,0.000,-222340
6.909250167,132812027,3.227,-9.137,-0.617,0.000,0.000,0.000,-222663
6.9145115,132817248,3.227,-9.137,-0.617,0.000,0.000,0.000,-222359
6.921556333,132824469,3.227,-9.137,-0.656,0.000,0.000,0.000,-222644
6.924863667,132827690,3.227,-9.137,-0.656,0.000,0.000,0.000,-222581
6.930089792,132832911,3.227,-9.137,-0.656,0.000,0.000,0.000,-222588
6.934332417,132837131,3.227,-9.137,-0.656,0.000,0.000,0.000,-222384
6.939461417,132842352,3.227,-9.137,-0.656,0.000,0.000,0.000,-222880
6.943706458,132846573,3.227,-9.137,-0.656,0.000,0.000,0.000,-222892
6.948255917,132850794,3.227,-9.137,-0.656,0.000,0.000,0.000,-222314
6.952162458,132855016,3.266,-9.211,-0.617,0.000,0.000,0.000,-221757
6.955463917,132858237,3.266,-9.211,-0.617,0.000,0.000,0.000,-221945
6.960617292,132863458,3.266,-9.211,-0.617,0.000,0.000,0.000,-223431
6.964885042,132867679,3.266,-9.211,-0.617,0.000,0.000,0.000,-222866
6.970126375,132872900,3.266,-9.211,-0.617,0.000,0.000,0.000,-222894
6.974410417,132877121,3.266,-9.211,-0.617,0.000,0.000,0.000,-222764
6.979449583,132882341,3.266,-9.211,-0.617,0.000,0.000,0.000,-222681
6.984867875,132886562,3.266,-9.176,-0.578,0.000,0.000,0.000,-223022
6.987509542,132889783,3.266,-9.176,-0.578,0.000,0.000,0.000,-223023
6.99209875,132895003,3.266,-9.176,-0.578,0.000,0.000,0.000,-223278
6.997304917,132900223,3.266,-9.176,-0.578,0.000,0.000,0.000,-223296
7.002719167,132905444,3.266,-9.176,-0.578,0.000,0.000,0.000,-222720
7.007848667,132910665,3.266,-9.133,-0.578,0.000,0.000,0.000,-222694
7.011018292,132913886,3.266,-9.133,-0.578,0.000,0.000,0.000,-223589
7.017287542,132920107,3.266,-9.133,-0.578,0.000,0.000,0.000,-222978
7.021447042,132924327,3.266,-9.133,-0.578,0.000,0.000,0.000,-222559
7.025624417,132928548,3.266,-9.133,-0.578,0.000,0.000,0.000,-223581
7.029923917,132932769,3.266,-9.133,-0.578,0.000,0.000,0.000,-223068
7.034141542,132936989,3.266,-9.133,-0.578,0.000,0.000,0.000,-222134
7.039327875,132942209,3.266,-9.094,-0.539,0.000,0.000,0.000,-222331
7.042528292,132945430,3.266,-9.094,-0.539,0.000,0.000,0.000,-222818
7.0478155,132950650,3.266,-9.094,-0.539,0.000,0.000,0.000,-222470
7.0530845,132954870,3.266,-9.094,-0.539,0.000,0.000,0.000,-222699
7.057235708,132960091,3.266,-9.094,-0.539,0.000,0.000,0.000,-223255
7.06148425,132964311,3.266,-9.094,-0.539,0.000,0.000,0.000,-223179
7.065722958,132968532,3.266,-9.094,-0.539,0.000,0.000,0.000,-221603
7.070320792,132972753,3.266,-9.133,-0.617,0.000,0.000,0.000,-222469
7.072132333,132974974,3.266,-9.133,-0.617,0.000,0.000,0.000,-223138
7.0784565,132981194,3.266,-9.133,-0.617,0.000,0.000,0.000,-222305
7.08257875,132985414,3.266,-9.133,-0.617,0.000,0.000,0.000,-222603
7.086793833,132989634,3.266,-9.133,-0.617,0.000,0.000,0.000,-221897
7.092066667,132994854,3.266,-9.133,-0.617,0.000,0.000,0.000,-222852
7.098340167,133001075,3.266,-9.133,-0.617,0.000,0.000,0.000,-222646
7.102584875,133005296,3.266,-9.133,-0.617,0.000,0.000,0.000,-222365
7.10588675,133008516,3.266,-9.133,-0.617,0.000,0.000,0.000,-222699
7.112138708,133014736,3.266,-9.133,-0.617,0.000,0.000,0.000,-222600
7.116698125,133018957,3.266,-9.133,-0.617,0.000,0.000,0.000,-222323
7.119307208,133022177,3.266,-9.133,-0.617,0.000,0.000,0.000,-223325
7.123449667,133026397,3.266,-9.133,-0.617,0.000,0.000,0.000,-222706
7.128615333,133030617,3.266,-9.133,-0.617,0.000,0.000,0.000,-222594
7.1319525,133034838,3.266,-9.133,-0.578,0.000,0.000,0.000,-222792
7.1351565,133038059,3.266,-9.133,-0.578,0.000,0.000,0.000,-221774
7.141436167,133044279,3.266,-9.133,-0.578,0.000,0.000,0.000,-223250
7.145575583,133048500,3.266,-9.133,-0.578,0.000,0.000,0.000,-223445
7.150233542,133052721,3.266,-9.133,-0.578,0.000,0.000,0.000,-222012
7.154125375,133056942,3.266,-9.133,-0.578,0.000,0.000,0.000,-223125
7.159299042,133062163,3.266,-9.133,-0.578,0.000,0.000,0.000,-222693
7.163541833,133066383,3.227,-9.172,-0.617,0.000,0.000,0.000,-222223
7.16671475,133069604,3.227,-9.172,-0.617,0.000,0.000,0.000,-221465
7.173059792,133075825,3.227,-9.172,-0.617,0.000,0.000,0.000,-223055
7.177215208,133080046,3.227,-9.172,-0.617,0.000,0.000,0.000,-221856
7.180620625,133083266,3.227,-9.172,-0.617,0.000,0.000,0.000,-223747
7.185108792,133087486,3.227,-9.172,-0.617,0.000,0.000,0.000,-222272
7.188771833,133091706,3.227,-9.172,-0.617,0.000,0.000,0.000,-222076
7.1930665,133095927,3.227,-9.172,-0.617,0.000,0.000,0.000,-222340
7.196331625,133099148,3.227,-9.172,-0.617,0.000,0.000,0.000,-223439
7.20150925,133104369,3.227,-9.172,-0.617,0.000,0.000,0.000,-222629
7.204805833,133107590,3.227,-9.172,-0.617,0.000,0.000,0.000,-222891
7.208040583,133110810,3.227,-9.172,-0.617,0.000,0.000,0.000,-222821
7.212263917,133115030,3.227,-9.172,-0.617,0.000,0.000,0.000,-222497
7.21740325,133120251,3.227,-9.172,-0.617,0.000,0.000,0.000,-222380
7.220556375,133123471,3.305,-9.133,-0.617,0.000,0.000,0.000,-222862
7.2258345,133128691,3.305,-9.133,-0.617,0.000,0.000,0.000,-223692
7.230038792,133132912,3.305,-9.133,-0.617,0.000,0.000,0.000,-222601
7.234291833,133137132,3.305,-9.133,-0.617,0.000,0.000,0.000,-221625
7.239489167,133142353,3.305,-9.133,-0.617,0.000,0.000,0.000,-222890
7.244039208,133146574,3.266,-9.133,-0.617,0.000,0.000,0.000,-222956
7.245926708,133148795,3.266,-9.133,-0.617,0.000,0.000,0.000,-222994
7.251144417,133154015,3.266,-9.133,-0.617,0.000,0.000,0.000,-222389
7.255374,133158236,3.266,-9.133,-0.617,0.000,0.000,0.000,-223665
7.260042208,133162458,3.266,-9.133,-0.617,0.000,0.000,0.000,-222800
7.263816875,133166679,3.266,-9.133,-0.617,0.000,0.000,0.000,-222202
7.268088583,133170900,3.266,-9.133,-0.617,0.000,0.000,0.000,-222202
7.272338458,133175121,3.227,-9.172,-0.578,0.000,0.000,0.000,-222280
7.275462167,133178342,3.227,-9.172,-0.578,0.000,0.000,0.000,-222843
7.280791667,133183563,3.227,-9.172,-0.578,0.000,0.000,0.000,-222146
7.285473583,133187783,3.227,-9.172,-0.578,0.000,0.000,0.000,-222775
7.288416958,133191005,3.227,-9.172,-0.578,0.000,0.000,0.000,-223080
7.292365667,133195226,3.227,-9.172,-0.578,0.000,0.000,0.000,-223041
7.298640417,133201447,3.227,-9.172,-0.578,0.000,0.000,0.000,-222898
7.302916625,133205668,3.227,-9.172,-0.617,0.000,0.000,0.000,-223136
7.306077875,133208888,3.227,-9.172,-0.617,0.000,0.000,0.000,-222892
7.311312583,133214109,3.227,-9.172,-0.617,0.000,0.000,0.000,-222733
7.315593583,133218329,3.227,-9.172,-0.617,0.000,0.000,0.000,-223347
7.320890542,133223549,3.227,-9.172,-0.617,0.000,0.000,0.000,-222448
7.324954375,133227770,3.227,-9.172,-0.617,0.000,0.000,0.000,-222918
7.329132708,133231990,3.227,-9.172,-0.617,0.000,0.000,0.000,-222861
7.332388542,133235210,3.266,-9.133,-0.617,0.000,0.000,0.000,-222937
7.335573917,133238430,3.266,-9.133,-0.617,0.000,0.000,0.000,-222101
7.342330917,133244651,3.266,-9.133,-0.617,0.000,0.000,0.000,-223466
7.346390917,133248872,3.266,-9.133,-0.617,0.000,0.000,0.000,-222744
7.350504417,133253093,3.266,-9.133,-0.617,0.000,0.000,0.000,-222267
7.355445958,133258313,3.266,-9.133,-0.617,0.000,0.000,0.000,-222109
7.359590917,133262533,3.266,-9.133,-0.617,0.000,0.000,0.000,-223518
7.363861958,133266754,3.266,-9.176,-0.539,0.000,0.000,0.000,-223131
7.36708075,133269974,3.266,-9.176,-0.539,0.000,0.000,0.000,-222447
7.372327542,133275194,3.266,-9.176,-0.539,0.000,0.000,0.000,-222898
7.376540167,133279414,3.266,-9.176,-0.539,0.000,0.000,0.000,-222907
7.380857625,133283635,3.266,-9.176,-0.539,0.000,0.000,0.000,-222513
7.385063083,133287856,3.266,-9.176,-0.539,0.000,0.000,0.000,-222312
7.38919675,133292077,3.266,-9.176,-0.539,0.000,0.000,0.000,-222853
7.393414708,133296297,3.266,-9.133,-0.578,0.000,0.000,0.000,-222894
7.396756542,133299518,3.266,-9.133,-0.578,0.000,0.000,0.000,-222865
7.402912458,133305738,3.266,-9.133,-0.578,0.000,0.000,0.000,-222235
7.40711625,133309959,3.266,-9.133,-0.578,0.000,0.000,0.000,-222587
7.410400458,133313179,3.266,-9.133,-0.578,0.000,0.000,0.000,-223224
7.414678042,133317400,3.266,-9.133,-0.578,0.000,0.000,0.000,-223875
7.420310583,133322620,3.266,-9.133,-0.578,0.000,0.000,0.000,-222210
7.423927333,133326840,3.266,-9.133,-0.578,0.000,0.000,0.000,-223324
7.427252042,133330061,3.266,-9.133,-0.578,0.000,0.000,0.000,-223110
7.434415292,133337281,3.266,-9.133,-0.578,0.000,0.000,0.000,-222063
7.438605417,133341502,3.266,-9.133,-0.578,0.000,0.000,0.000,-222106
7.441809375,133344723,3.266,-9.133,-0.578,0.000,0.000,0.000,-222838
7.446102875,133348944,3.266,-9.133,-0.578,0.000,0.000,0.000,-222442
7.450241375,133353165,3.266,-9.133,-0.578,0.000,0.000,0.000,-222414
7.454736792,133357385,3.266,-9.094,-0.656,0.000,0.000,0.000,-222658
7.456718625,133359606,3.266,-9.094,-0.656,0.000,0.000,0.000,-223434
7.46192325,133364827,3.266,-9.094,-0.656,0.000,0.000,0.000,-223415
7.466176958,133369047,3.266,-9.094,-0.656,0.000,0.000,0.000,-222627
7.470441333,133373267,3.266,-9.094,-0.656,0.000,0.000,0.000,-222316
7.475631417,133378488,3.266,-9.094,-0.656,0.000,0.000,0.000,-222541
7.479939167,133382709,3.266,-9.094,-0.656,0.000,0.000,0.000,-222990
7.48312075,133385929,3.266,-9.133,-0.539,0.000,0.000,0.000,-222118
7.485349958,133388150,3.266,-9.133,-0.539,0.000,0.000,0.000,-222904
7.489434333,133392370,3.266,-9.133,-0.539,0.000,0.000,0.000,-223005
7.493677708,133396575,3.266,-9.133,-0.539,0.000,0.000,0.000,-223005
7.498908375,133401795,3.266,-9.133,-0.539,0.000,0.000,0.000,-221973
7.503243167,133406015,3.266,-9.133,-0.539,0.000,0.000,0.000,-223062
7.507342333,133410236,3.266,-9.133,-0.539,0.000,0.000,0.000,-223232
7.511614167,133414456,3.227,-9.098,-0.578,0.000,0.000,0.000,-223360
7.513904417,133416676,3.227,-9.098,-0.578,0.000,0.000,0.000,-222309
7.51907125,133421897,3.227,-9.098,-0.578,0.000,0.000,0.000,-223217
7.523237125,133426117,3.227,-9.098,-0.578,0.000,0.000,0.000,-222208
7.527467875,133430338,3.227,-9.098,-0.578,0.000,0.000,0.000,-222977
7.531738708,133434558,3.227,-9.098,-0.578,0.000,0.000,0.000,-222791
7.536050375,133438779,3.227,-9.098,-0.578,0.000,0.000,0.000,-222161
7.541494333,133444002,3.227,-9.137,-0.656,0.000,0.000,0.000,-223691
7.544607583,133447223,3.227,-9.137,-0.656,0.000,0.000,0.000,-222874
7.549985042,133452444,3.227,-9.137,-0.656,0.000,0.000,0.000,-222325
7.553112333,133455665,3.227,-9.137,-0.617,0.000,0.000,0.000,-222125
7.558007708,133460885,3.227,-9.137,-0.617,0.000,0.000,0.000,-222587
7.562315333,133465106,3.227,-9.137,-0.617,0.000,0.000,0.000,-222574
7.566489292,133469327,3.227,-9.137,-0.617,0.000,0.000,0.000,-222923
7.571922208,133474548,3.227,-9.137,-0.617,0.000,0.000,0.000,-222717
7.57611125,133478754,3.227,-9.137,-0.617,0.000,0.000,0.000,-222717
7.580449,133482974,3.227,-9.172,-0.617,0.000,0.000,0.000,-222238
7.583350583,133486194,3.227,-9.172,-0.617,0.000,0.000,0.000,-223255
7.588554,133491414,3.227,-9.172,-0.617,0.000,0.000,0.000,-222827
7.59280625,133495635,3.227,-9.172,-0.617,0.000,0.000,0.000,-222976
7.598023,133500856,3.227,-9.172,-0.617,0.000,0.000,0.000,-222369
7.602432042,133505077,3.227,-9.172,-0.617,0.000,0.000,0.000,-222216
7.606652417,133509298,3.227,-9.172,-0.617,0.000,0.000,0.000,-222350
7.610871208,133513518,3.266,-9.176,-0.578,0.000,0.000,0.000,-222517
7.613097292,133515739,3.266,-9.176,-0.578,0.000,0.000,0.000,-222421
7.619530167,133521959,3.266,-9.176,-0.578,0.000,0.000,0.000,-222935
7.623281333,133526180,3.266,-9.176,-0.578,0.000,0.000,0.000,-223185
7.627566417,133530400,3.266,-9.176,-0.578,0.000,0.000,0.000,-222637
7.631726375,133534620,3.266,-9.176,-0.578,0.000,0.000,0.000,-221953
7.635969917,133538841,3.266,-9.176,-0.578,0.000,0.000,0.000,-221934
7.6412555,133544062,3.227,-9.172,-0.578,0.000,0.000,0.000,-222805
7.644458208,133547282,3.227,-9.172,-0.578,0.000,0.000,0.000,-222846
