pc_time_s,teensy_time_us,ax,ay,az,gx,gy,gz,load_raw
2.007143917,842283004,3.266,-9.133,-0.656,0.000,0.000,0.000,-222173
2.007237208,842287224,3.191,-9.094,-0.656,0.000,0.000,0.000,-221853
2.007329875,842291444,3.191,-9.094,-0.656,0.000,0.000,0.000,-222367
2.007418833,842297664,3.266,-9.133,-0.617,0.000,0.000,0.000,-222801
2.007512625,842302884,3.266,-9.133,-0.617,0.000,0.000,0.000,-222115
2.007600875,842309104,3.266,-9.133,-0.539,0.000,0.000,0.000,-222660
2.00769125,842314324,3.266,-9.133,-0.539,0.000,0.000,0.000,-221738
2.007779375,842323544,3.266,-9.133,-0.539,0.000,0.000,0.000,-222063
2.007867833,842327764,3.266,-9.133,-0.617,0.000,0.000,0.000,-222341
2.007963625,842331984,3.266,-9.133,-0.617,0.000,0.000,0.000,-222384
2.008056625,842338205,3.227,-9.098,-0.617,0.000,0.000,0.000,-222518
2.008154375,842342425,3.227,-9.098,-0.617,0.000,0.000,0.000,-223275
2.008265542,842347645,3.227,-9.098,-0.578,0.000,0.000,0.000,-222859
2.008362833,842351866,3.227,-9.098,-0.578,0.000,0.000,0.000,-222508
2.008452958,842358086,3.266,-9.176,-0.617,0.000,0.000,0.000,-222685
2.008541708,842363306,3.266,-9.176,-0.617,0.000,0.000,0.000,-223420
2.008639208,842368526,3.266,-9.133,-0.617,0.000,0.000,0.000,-221758
2.0087325,842373746,3.266,-9.133,-0.617,0.000,0.000,0.000,-222897
2.008827083,842379967,3.266,-9.176,-0.617,0.000,0.000,0.000,-221688
2.008917125,842384187,3.266,-9.176,-0.617,0.000,0.000,0.000,-221706
2.009008333,842389407,3.266,-9.133,-0.578,0.000,0.000,0.000,-222146
2.009100042,842394627,3.266,-9.133,-0.578,0.000,0.000,0.000,-222773
2.009189542,842399849,3.227,-9.137,-0.539,0.000,0.000,0.000,-221866
2.009288667,842404070,3.227,-9.137,-0.539,0.000,0.000,0.000,-222052
2.009408167,842409290,3.227,-9.172,-0.539,0.000,0.000,0.000,-222716
2.009539542,842414510,3.227,-9.172,-0.539,0.000,0.000,0.000,-222098
2.009634583,842421730,3.227,-9.172,-0.539,0.000,0.000,0.000,-222181
2.009726042,842426950,3.266,-9.133,-0.656,0.000,0.000,0.000,-222608
2.009819875,842432170,3.266,-9.133,-0.656,0.000,0.000,0.000,-222299
2.009915333,842440392,3.305,-9.176,-0.500,0.000,0.000,0.000,-222184
2.010007917,842443612,3.305,-9.176,-0.500,0.000,0.000,0.000,-222946
2.010097542,842448832,3.266,-9.176,-0.578,0.000,0.000,0.000,-222751
2.010200458,842453052,3.266,-9.176,-0.578,0.000,0.000,0.000,-221705
2.010297333,842459272,3.266,-9.176,-0.617,0.000,0.000,0.000,-222768
2.010387292,842463492,3.266,-9.176,-0.617,0.000,0.000,0.000,-222172
2.010483375,842468712,3.227,-9.098,-0.656,0.000,0.000,0.000,-221747
2.010574667,842474932,3.227,-9.098,-0.656,0.000,0.000,0.000,-222459
2.010672667,842481152,3.227,-9.098,-0.656,0.000,0.000,0.000,-222158
2.01076325,842486372,3.266,-9.133,-0.578,0.000,0.000,0.000,-222351
2.010858583,842491594,3.266,-9.133,-0.578,0.000,0.000,0.000,-223509
2.010949208,842497814,3.227,-9.172,-0.539,0.000,0.000,0.000,-222874
2.011042583,842503034,3.227,-9.172,-0.539,0.000,0.000,0.000,-222253
2.01113325,842508254,3.266,-9.133,-0.539,0.000,0.000,0.000,-222741
2.011223375,842512474,3.266,-9.133,-0.539,0.000,0.000,0.000,-222448
2.011318333,842518694,3.266,-9.176,-0.617,0.000,0.000,0.000,-221710
2.011408333,842522914,3.266,-9.176,-0.617,0.000,0.000,0.000,-221976
2.01150425,842528134,3.305,-9.176,-0.617,0.000,0.000,0.000,-222547
2.011852958,842533354,3.305,-9.176,-0.617,0.000,0.000,0.000,-222894
2.011950542,842539577,3.266,-9.176,-0.578,0.000,0.000,0.000,-221307
2.012045333,842544797,3.266,-9.176,-0.578,0.000,0.000,0.000,-222678
2.012134042,842551017,3.266,-9.176,-0.578,0.000,0.000,0.000,-221650
2.0122285,842558237,3.227,-9.137,-0.617,0.000,0.000,0.000,-223039
2.012318167,842563457,3.227,-9.137,-0.617,0.000,0.000,0.000,-222114
2.012412417,842568677,3.227,-9.137,-0.617,0.000,0.000,0.000,-220769
2.012500625,842575897,3.227,-9.137,-0.617,0.000,0.000,0.000,-222452
2.012597042,842581117,3.227,-9.137,-0.617,0.000,0.000,0.000,-222126
2.012690292,842585337,3.266,-9.094,-0.578,0.000,0.000,0.000,-222004
2.012788083,842589557,3.305,-9.176,-0.656,0.000,0.000,0.000,-221543
2.012886917,842594777,3.305,-9.176,-0.656,0.000,0.000,0.000,-222545
2.012983625,842601997,3.305,-9.176,-0.656,0.000,0.000,0.000,-222193
2.013143333,842606217,3.227,-9.137,-0.539,0.000,0.000,0.000,-221852
2.013230042,842611437,3.227,-9.137,-0.539,0.000,0.000,0.000,-222384
2.013314958,842617657,3.266,-9.211,-0.656,0.000,0.000,0.000,-222720
2.013435208,842621877,3.266,-9.211,-0.656,0.000,0.000,0.000,-222029
2.013520875,842627097,3.266,-9.176,-0.578,0.000,0.000,0.000,-222279
2.013617542,842632317,3.266,-9.176,-0.578,0.000,0.000,0.000,-222596
2.013716583,842638537,3.266,-9.133,-0.578,0.000,0.000,0.000,-222092
2.013807917,842642757,3.266,-9.133,-0.578,0.000,0.000,0.000,-222962
2.013900333,842647977,3.266,-9.176,-0.539,0.000,0.000,0.000,-222026
2.013993667,842653197,3.266,-9.176,-0.539,0.000,0.000,0.000,-222012
2.014089708,842661417,3.266,-9.176,-0.539,0.000,0.000,0.000,-223406
2.014181958,842665637,3.227,-9.137,-0.656,0.000,0.000,0.000,-222326
2.014272542,842670857,3.227,-9.137,-0.656,0.000,0.000,0.000,-222035
2.014358083,842678077,3.266,-9.176,-0.539,0.000,0.000,0.000,-222627
2.014450167,842683297,3.266,-9.176,-0.539,0.000,0.000,0.000,-222881
2.014538125,842688518,3.227,-9.137,-0.617,0.000,0.000,0.000,-222548
2.014637833,842692738,3.227,-9.137,-0.617,0.000,0.000,0.000,-222417
2.014739917,842699958,3.266,-9.133,-0.578,0.000,0.000,0.000,-221855
2.014849083,842705178,3.266,-9.133,-0.578,0.000,0.000,0.000,-222248
2.014940292,842711398,3.266,-9.133,-0.578,0.000,0.000,0.000,-221534
2.015027208,842717619,3.227,-9.137,-0.617,0.000,0.000,0.000,-221642
2.01515325,842722840,3.227,-9.137,-0.617,0.000,0.000,0.000,-222928
2.015246583,842728060,3.266,-9.176,-0.617,0.000,0.000,0.000,-222206
2.015331458,842733280,3.266,-9.176,-0.617,0.000,0.000,0.000,-222112
2.015511667,842740500,3.305,-9.133,-0.656,0.000,0.000,0.000,-223036
2.015597542,842745720,3.305,-9.133,-0.656,0.000,0.000,0.000,-222873
2.01569125,842751940,3.305,-9.133,-0.656,0.000,0.000,0.000,-222106
2.01577675,842757160,3.266,-9.133,-0.617,0.000,0.000,0.000,-222867
2.015861708,842761380,3.266,-9.133,-0.617,0.000,0.000,0.000,-222057
2.015961417,842766600,3.266,-9.094,-0.578,0.000,0.000,0.000,-222362
2.033707292,842771820,3.266,-9.094,-0.578,0.000,0.000,0.000,-222318
2.033793667,842779040,3.227,-9.172,-0.539,0.000,0.000,0.000,-222744
2.033873958,842784260,3.227,-9.172,-0.539,0.000,0.000,0.000,-222521
2.033958125,842789481,3.227,-9.137,-0.539,0.000,0.000,0.000,-221685
2.034037375,842795701,3.227,-9.137,-0.539,0.000,0.000,0.000,-222947
2.03411775,842800922,3.227,-9.137,-0.539,0.000,0.000,0.000,-221758
2.034201792,842806142,3.266,-9.137,-0.691,0.000,0.000,0.000,-222697
2.034282042,842811362,3.266,-9.137,-0.691,0.000,0.000,0.000,-222932
2.034366167,842817584,3.266,-9.133,-0.617,0.000,0.000,0.000,-221303
2.034445708,842821804,3.266,-9.133,-0.617,0.000,0.000,0.000,-222133
2.03452825,842827024,3.266,-9.176,-0.539,0.000,0.000,0.000,-222540
2.034613542,842835244,3.266,-9.176,-0.539,0.000,0.000,0.000,-222962
2.034693708,842842464,3.266,-9.176,-0.539,0.000,0.000,0.000,-222972
2.034944875,842846684,3.266,-9.133,-0.578,0.000,0.000,0.000,-221920
2.035088875,842851904,3.266,-9.133,-0.578,0.000,0.000,0.000,-222040
2.035177,842858124,3.227,-9.137,-0.656,0.000,0.000,0.000,-222415
2.035255583,842862344,3.227,-9.137,-0.656,0.000,0.000,0.000,-222626
2.035341167,842866564,3.227,-9.172,-0.578,0.000,0.000,0.000,-222564
2.035424042,842871784,3.227,-9.172,-0.578,0.000,0.000,0.000,-222212
2.035502208,842879004,3.227,-9.137,-0.617,0.000,0.000,0.000,-222887
2.035585875,842884224,3.227,-9.137,-0.617,0.000,0.000,0.000,-221579
2.035664,842891445,3.266,-9.094,-0.578,0.000,0.000,0.000,-222727
2.035748083,842893665,3.266,-9.094,-0.578,0.000,0.000,0.000,-222586
2.035827208,842900885,3.266,-9.094,-0.578,0.000,0.000,0.000,-222420
2.035905625,842905105,3.266,-9.133,-0.617,0.000,0.000,0.000,-222342
2.035988208,842909325,3.266,-9.133,-0.578,0.000,0.000,0.000,-222788
2.036066208,842913547,3.266,-9.133,-0.578,0.000,0.000,0.000,-222841
2.036148,842919767,3.266,-9.176,-0.578,0.000,0.000,0.000,-221915
2.036225917,842923987,3.266,-9.176,-0.578,0.000,0.000,0.000,-222915
2.036385125,842929207,3.227,-9.137,-0.578,0.000,0.000,0.000,-222119
2.036465333,842933427,3.227,-9.137,-0.578,0.000,0.000,0.000,-222726
2.036544333,842939647,3.266,-9.133,-0.656,0.000,0.000,0.000,-222166
2.036632667,842943867,3.266,-9.133,-0.656,0.000,0.000,0.000,-223476
2.036711917,842950087,3.227,-9.137,-0.578,0.000,0.000,0.000,-222993
2.036795167,842956307,3.227,-9.137,-0.578,0.000,0.000,0.000,-222644
2.036874292,842962527,3.227,-9.137,-0.578,0.000,0.000,0.000,-223087
2.036954875,842966748,3.266,-9.176,-0.617,0.000,0.000,0.000,-221069
2.037037333,842971968,3.266,-9.176,-0.617,0.000,0.000,0.000,-221951
2.03712075,842979188,3.266,-9.133,-0.578,0.000,0.000,0.000,-222378
2.037205125,842983408,3.266,-9.133,-0.578,0.000,0.000,0.000,-222416
2.037284208,842988628,3.305,-9.133,-0.539,0.000,0.000,0.000,-222772
2.037403542,842992848,3.305,-9.133,-0.539,0.000,0.000,0.000,-222879
2.037482167,842999068,3.266,-9.176,-0.617,0.000,0.000,0.000,-222649
2.037560958,843003288,3.266,-9.176,-0.617,0.000,0.000,0.000,-221580
2.037645167,843008508,3.227,-9.137,-0.578,0.000,0.000,0.000,-222564
2.037723458,843012728,3.227,-9.137,-0.578,0.000,0.000,0.000,-222450
2.037807333,843018948,3.227,-9.098,-0.656,0.000,0.000,0.000,-222181
2.037885792,843023168,3.227,-9.098,-0.656,0.000,0.000,0.000,-223322
2.037966333,843028388,3.227,-9.137,-0.617,0.000,0.000,0.000,-222831
2.038046792,843032608,3.227,-9.137,-0.617,0.000,0.000,0.000,-222225
2.03812525,843038829,3.266,-9.133,-0.539,0.000,0.000,0.000,-222872
2.0382105,843044049,3.266,-9.133,-0.539,0.000,0.000,0.000,-223049
2.038289708,843050269,3.227,-9.137,-0.578,0.000,0.000,0.000,-222354
2.038376208,843054489,3.227,-9.137,-0.578,0.000,0.000,0.000,-222428
2.038455708,843061709,3.266,-9.133,-0.656,0.000,0.000,0.000,-223219
2.038534417,843064930,3.266,-9.133,-0.656,0.000,0.000,0.000,-222260
2.038620333,843071150,3.266,-9.133,-0.656,0.000,0.000,0.000,-221946
2.038699542,843076370,3.266,-9.133,-0.578,0.000,0.000,0.000,-222508
2.038781708,843081590,3.266,-9.133,-0.578,0.000,0.000,0.000,-222330
2.038860208,843085810,3.266,-9.133,-0.578,0.000,0.000,0.000,-221943
2.03894225,843093030,3.266,-9.133,-0.578,0.000,0.000,0.000,-222593
2.039020042,843099250,3.227,-9.172,-0.617,0.000,0.000,0.000,-221660
2.039098417,843103470,3.227,-9.172,-0.617,0.000,0.000,0.000,-222481
2.039180917,843108691,3.305,-9.133,-0.656,0.000,0.000,0.000,-222675
2.039259167,843113911,3.305,-9.133,-0.656,0.000,0.000,0.000,-222185
2.039343083,843121132,3.266,-9.176,-0.578,0.000,0.000,0.000,-222371
2.039421083,843126352,3.266,-9.176,-0.578,0.000,0.000,0.000,-222465
2.0395015,843131572,3.266,-9.133,-0.578,0.000,0.000,0.000,-223031
2.039582542,843136792,3.266,-9.133,-0.578,0.000,0.000,0.000,-222140
2.039660292,843143012,3.266,-9.133,-0.578,0.000,0.000,0.000,-222375
2.039743667,843147233,3.227,-9.137,-0.617,0.000,0.000,0.000,-222819
2.0398215,843152454,3.227,-9.137,-0.617,0.000,0.000,0.000,-221880
2.039905042,843158674,3.227,-9.172,-0.617,0.000,0.000,0.000,-223349
2.039984042,843162894,3.227,-9.172,-0.617,0.000,0.000,0.000,-222686
2.040062083,843168114,3.266,-9.176,-0.578,0.000,0.000,0.000,-222431
2.040145917,843173334,3.266,-9.176,-0.578,0.000,0.000,0.000,-223261
2.040224292,843180554,3.266,-9.176,-0.578,0.000,0.000,0.000,-222827
2.040308167,843184774,3.266,-9.176,-0.578,0.000,0.000,0.000,-223032
2.040387375,843189994,3.227,-9.137,-0.617,0.000,0.000,0.000,-223316
2.040472958,843195214,3.227,-9.137,-0.617,0.000,0.000,0.000,-223123
2.040552917,843202434,3.227,-9.137,-0.617,0.000,0.000,0.000,-222621
2.040632333,843206654,3.266,-9.176,-0.617,0.000,0.000,0.000,-222474
2.040718083,843210874,3.266,-9.133,-0.656,0.000,0.000,0.000,-222301
2.040797583,843216094,3.266,-9.133,-0.656,0.000,0.000,0.000,-222299
2.040880125,843223314,3.266,-9.176,-0.539,0.000,0.000,0.000,-222523
2.040958458,843226534,3.266,-9.176,-0.539,0.000,0.000,0.000,-222455
2.041038792,843233754,3.266,-9.176,-0.539,0.000,0.000,0.000,-222305
2.041120667,843238974,3.227,-9.137,-0.656,0.000,0.000,0.000,-221985
2.041198708,843244194,3.227,-9.137,-0.656,0.000,0.000,0.000,-223029
2.041282542,843249414,3.227,-9.098,-0.617,0.000,0.000,0.000,-222654
2.041361083,843253634,3.227,-9.098,-0.617,0.000,0.000,0.000,-222457
2.04144725,843259854,3.305,-9.211,-0.578,0.000,0.000,0.000,-222813
2.041537708,843264074,3.305,-9.211,-0.578,0.000,0.000,0.000,-223186
2.041624458,843269294,3.266,-9.094,-0.539,0.000,0.000,0.000,-222419
2.041710292,843274514,3.266,-9.094,-0.539,0.000,0.000,0.000,-222575
2.041789208,843280734,3.266,-9.133,-0.578,0.000,0.000,0.000,-222872
2.041872583,843285954,3.266,-9.133,-0.578,0.000,0.000,0.000,-221607
2.041950833,843291174,3.305,-9.133,-0.617,0.000,0.000,0.000,-222490
2.042031125,843296394,3.305,-9.133,-0.617,0.000,0.000,0.000,-223049
2.042111167,843302614,3.227,-9.172,-0.617,0.000,0.000,0.000,-222008
2.042189708,843307835,3.227,-9.172,-0.617,0.000,0.000,0.000,-222660
2.042272458,843313055,3.266,-9.133,-0.578,0.000,0.000,0.000,-222801
2.042350792,843318275,3.266,-9.133,-0.578,0.000,0.000,0.000,-222497
2.042434542,843323495,3.266,-9.133,-0.578,0.000,0.000,0.000,-222358
2.042517667,843328715,3.305,-9.094,-0.578,0.000,0.000,0.000,-222080
2.042598083,843333935,3.305,-9.094,-0.578,0.000,0.000,0.000,-222641
2.042686958,843340155,3.227,-9.172,-0.656,0.000,0.000,0.000,-223328
2.042771125,843347376,3.227,-9.172,-0.656,0.000,0.000,0.000,-222527
2.042856583,843352597,3.266,-9.133,-0.578,0.000,0.000,0.000,-222460
2.042934667,843357817,3.266,-9.133,-0.578,0.000,0.000,0.000,-222308
2.043022375,843363037,3.266,-9.211,-0.539,0.000,0.000,0.000,-223085
2.043101292,843367257,3.266,-9.211,-0.539,0.000,0.000,0.000,-222022
2.043179333,843372477,3.227,-9.172,-0.578,0.000,0.000,0.000,-222500
2.043263375,843377697,3.227,-9.172,-0.578,0.000,0.000,0.000,-222979
2.043343958,843384918,3.266,-9.133,-0.617,0.000,0.000,0.000,-222884
2.043430125,843388139,3.266,-9.133,-0.617,0.000,0.000,0.000,-222392
2.043517542,843394362,3.266,-9.133,-0.617,0.000,0.000,0.000,-222230
2.043603833,843401582,3.266,-9.176,-0.617,0.000,0.000,0.000,-222239
2.0436995,843406802,3.266,-9.176,-0.617,0.000,0.000,0.000,-222849
2.043789958,843412022,3.266,-9.172,-0.465,0.000,0.000,0.000,-222870
2.043881375,843416242,3.266,-9.172,-0.465,0.000,0.000,0.000,-222843
2.043962042,843422462,3.266,-9.133,-0.617,0.000,0.000,0.000,-221907
2.044085958,843426682,3.266,-9.133,-0.617,0.000,0.000,0.000,-223382
2.044167625,843430902,3.266,-9.211,-0.617,0.000,0.000,0.000,-223417
2.044246958,843435122,3.266,-9.211,-0.617,0.000,0.000,0.000,-221765
2.044390042,843441342,3.227,-9.137,-0.656,0.000,0.000,0.000,-222305
2.044488667,843446562,3.227,-9.137,-0.656,0.000,0.000,0.000,-223092
2.067039333,843451782,3.227,-9.137,-0.539,0.000,0.000,0.000,-221948
2.067111958,843457002,3.227,-9.137,-0.539,0.000,0.000,0.000,-223101
2.067189667,843463222,3.227,-9.137,-0.578,0.000,0.000,0.000,-222544
2.067260458,843467442,3.227,-9.137,-0.578,0.000,0.000,0.000,-221806
2.0673315,843472662,3.266,-9.176,-0.539,0.000,0.000,0.000,-221811
2.067412167,843477882,3.266,-9.176,-0.539,0.000,0.000,0.000,-223133
2.067483208,843485102,3.266,-9.172,-0.691,0.000,0.000,0.000,-221404
2.067564417,843488322,3.266,-9.172,-0.691,0.000,0.000,0.000,-222033
2.067635083,843494543,3.266,-9.172,-0.691,0.000,0.000,0.000,-222886
2.067707875,843500763,3.266,-9.176,-0.500,0.000,0.000,0.000,-222264
2.067788708,843504983,3.266,-9.176,-0.500,0.000,0.000,0.000,-222199
2.067862792,843510204,3.266,-9.176,-0.539,0.000,0.000,0.000,-222898
2.067959083,843514424,3.266,-9.176,-0.539,0.000,0.000,0.000,-222304
2.068033292,843521645,3.227,-9.137,-0.617,0.000,0.000,0.000,-221232
2.068106667,843526865,3.227,-9.137,-0.617,0.000,0.000,0.000,-222638
2.068181708,843532085,3.227,-9.172,-0.656,0.000,0.000,0.000,-223307
2.068253042,843536305,3.227,-9.172,-0.656,0.000,0.000,0.000,-221766
2.068336792,843542525,3.266,-9.176,-0.656,0.000,0.000,0.000,-223290
2.068408792,843547745,3.266,-9.176,-0.656,0.000,0.000,0.000,-222798
2.068483583,843552965,3.266,-9.176,-0.578,0.000,0.000,0.000,-221688
2.068554208,843557185,3.266,-9.176,-0.578,0.000,0.000,0.000,-222413
2.068643917,843564405,3.227,-9.137,-0.617,0.000,0.000,0.000,-223298
2.068719167,843569625,3.227,-9.137,-0.617,0.000,0.000,0.000,-222091
2.0687905,843575845,3.227,-9.215,-0.656,0.000,0.000,0.000,-222376
2.068866,843579065,3.227,-9.215,-0.656,0.000,0.000,0.000,-223120
2.068937625,843585285,3.227,-9.215,-0.656,0.000,0.000,0.000,-221629
2.06901275,843590505,3.266,-9.176,-0.578,0.000,0.000,0.000,-222090
2.069084292,843597725,3.266,-9.176,-0.578,0.000,0.000,0.000,-222654
2.069156042,843603945,3.305,-9.176,-0.617,0.000,0.000,0.000,-222388
2.069236708,843608165,3.305,-9.176,-0.617,0.000,0.000,0.000,-222756
2.069308375,843612385,3.266,-9.133,-0.617,0.000,0.000,0.000,-222990
2.069385292,843618605,3.266,-9.133,-0.617,0.000,0.000,0.000,-222768
2.069460958,843625825,3.266,-9.133,-0.617,0.000,0.000,0.000,-222948
2.069539083,843630045,3.266,-9.133,-0.617,0.000,0.000,0.000,-222174
2.069799625,843635265,3.266,-9.133,-0.617,0.000,0.000,0.000,-221147
2.06994025,843641485,3.227,-9.172,-0.617,0.000,0.000,0.000,-222425
2.070020042,843646706,3.227,-9.172,-0.617,0.000,0.000,-0.002,-222999
2.070093792,843651927,3.266,-9.176,-0.578,0.000,0.000,-0.002,-221438
2.070172167,843656148,3.266,-9.176,-0.578,0.000,-0.002,0.002,-221874
2.07024525,843662368,3.227,-9.172,-0.578,0.000,-0.002,0.002,-222508
2.07031725,843667589,3.227,-9.172,-0.578,0.002,0.000,0.000,-222206
2.070396792,843672809,3.227,-9.172,-0.617,0.002,0.000,0.000,-222193
2.070469042,843678029,3.227,-9.172,-0.617,0.002,0.002,0.002,-222224
2.070547208,843684249,3.227,-9.137,-0.656,0.002,0.002,0.002,-222383
2.07062075,843689470,3.227,-9.137,-0.656,-0.002,0.002,0.000,-222281
2.070698083,843695691,3.227,-9.137,-0.656,-0.002,0.000,0.002,-222108
2.070772083,843701912,3.305,-9.133,-0.617,-0.002,0.000,0.002,-222178
2.070844458,843706133,3.305,-9.133,-0.617,0.000,0.000,0.002,-222416
2.070925208,843710353,3.227,-9.137,-0.539,0.000,0.000,0.002,-223132
2.070996833,843715575,3.227,-9.137,-0.539,0.000,0.002,0.002,-222035
2.071074875,843720795,3.266,-9.133,-0.656,0.000,0.002,0.002,-222066
2.07114675,843725016,3.266,-9.133,-0.656,0.004,0.000,0.002,-223158
2.071219083,843729237,3.227,-9.172,-0.617,0.004,0.000,0.002,-222602
2.071297292,843733457,3.227,-9.172,-0.578,0.004,0.000,0.002,-222309
2.07136925,843739677,3.227,-9.172,-0.578,0.000,0.000,0.000,-221935
2.071448083,843746897,3.227,-9.172,-0.578,-0.002,0.000,0.000,-222042
2.071520833,843750118,3.227,-9.137,-0.578,-0.002,0.000,0.000,-221284
2.071598125,843755339,3.227,-9.137,-0.578,0.002,0.000,0.000,-221565
2.071669792,843761559,3.227,-9.098,-0.617,0.002,0.000,0.000,-222278
2.071745083,843766779,3.227,-9.098,-0.617,0.002,0.002,0.000,-222119
2.071823667,843772000,3.305,-9.133,-0.617,0.002,0.002,0.000,-222212
2.071895417,843776220,3.305,-9.133,-0.617,0.000,0.000,0.000,-222046
2.071979958,843782440,3.227,-9.137,-0.656,0.000,0.000,0.000,-222362
2.072066542,843787660,3.227,-9.137,-0.656,-0.004,-0.002,-0.002,-222467
2.07215175,843793866,3.266,-9.133,-0.578,-0.004,-0.002,-0.002,-222467
2.072228167,843800086,3.266,-9.133,-0.578,-0.004,0.002,0.000,-222347
2.072302292,843805307,3.266,-9.133,-0.578,-0.002,0.002,-0.002,-222777
2.07238225,843810528,3.266,-9.094,-0.539,-0.002,0.002,-0.002,-222910
2.072455417,843815749,3.266,-9.094,-0.539,0.000,-0.002,0.000,-221672
2.072533917,843821970,3.266,-9.133,-0.656,0.000,-0.002,0.000,-221488
2.072605833,843826191,3.266,-9.133,-0.656,0.002,0.000,0.004,-221942
2.072677375,843831412,3.227,-9.137,-0.617,0.002,0.000,0.004,-222181
2.072755042,843836632,3.227,-9.137,-0.617,0.002,0.004,0.002,-221634
2.072826667,843843854,3.227,-9.172,-0.617,0.002,0.004,0.002,-223028
2.072903375,843849074,3.227,-9.172,-0.617,0.000,0.000,-0.002,-223044
2.072982292,843854295,3.266,-9.176,-0.500,0.000,0.000,-0.002,-222130
2.073065833,843859516,3.266,-9.176,-0.500,0.000,0.000,0.002,-222747
2.073145333,843865736,3.266,-9.211,-0.539,0.000,0.000,0.002,-221891
2.073217625,843870956,3.266,-9.211,-0.539,0.002,0.000,0.000,-222179
2.07329325,843876176,3.266,-9.211,-0.539,0.000,0.000,0.000,-222507
2.07336425,843882396,3.266,-9.133,-0.656,0.000,0.000,0.000,-221825
2.073439708,843887616,3.266,-9.133,-0.656,0.000,0.000,0.000,-221955
2.073511167,843892836,3.266,-9.133,-0.617,0.000,0.000,0.000,-222606
2.073586708,843898056,3.266,-9.133,-0.617,-0.002,0.000,0.002,-222720
2.073660292,843904277,3.266,-9.176,-0.656,-0.002,0.000,0.002,-222047
2.0737335,843909498,3.266,-9.176,-0.656,-0.002,0.000,0.000,-221931
2.073812375,843915719,3.266,-9.133,-0.539,-0.002,0.000,0.000,-222505
2.073884042,843918940,3.266,-9.133,-0.539,0.000,0.000,0.002,-221782
2.073966042,843925160,3.266,-9.133,-0.656,0.000,0.000,0.002,-222683
2.074045583,843929380,3.266,-9.133,-0.656,0.002,0.000,0.000,-222671
2.074126917,843934600,3.227,-9.098,-0.617,0.002,0.000,0.000,-222495
2.074202208,843938820,3.227,-9.098,-0.617,0.000,-0.002,0.000,-222324
2.074274458,843945041,3.227,-9.172,-0.578,0.000,-0.002,0.000,-222510
2.074350875,843949262,3.227,-9.172,-0.578,-0.004,0.000,0.000,-222735
2.074424167,843954483,3.266,-9.176,-0.539,-0.004,0.000,0.000,-222425
2.074502833,843958704,3.266,-9.176,-0.539,-0.004,-0.002,-0.004,-222872
2.074577667,843964925,3.227,-9.172,-0.617,-0.004,-0.002,-0.004,-221490
2.074655208,843969146,3.227,-9.172,-0.617,0.004,0.000,0.000,-221657
2.074731,843974368,3.227,-9.137,-0.617,0.004,0.000,0.000,-223688
2.074806333,843978588,3.227,-9.137,-0.617,0.002,0.002,0.000,-222828
2.074910875,843984808,3.227,-9.098,-0.539,0.002,0.002,0.000,-222646
2.07498725,843989028,3.227,-9.098,-0.539,-0.006,0.002,-0.002,-222099
2.075068542,843993249,3.266,-9.176,-0.539,-0.006,0.002,-0.002,-222394
2.075143417,843997470,3.266,-9.176,-0.539,-0.004,0.002,-0.002,-222420
2.075218625,844003691,3.266,-9.176,-0.539,-0.004,0.002,-0.002,-221754
2.075297792,844007912,3.266,-9.176,-0.539,0.000,0.000,0.002,-222445
2.075370542,844014133,3.227,-9.172,-0.578,0.000,0.000,0.002,-223444
2.075448667,844019354,3.227,-9.172,-0.578,0.002,0.000,0.004,-222429
2.075521375,844025575,3.227,-9.172,-0.617,0.002,0.000,0.004,-221855
2.075614208,844029795,3.227,-9.172,-0.617,-0.002,-0.002,0.002,-222583
2.075689208,844035016,3.227,-9.137,-0.578,-0.002,-0.002,0.002,-222196
2.075762167,844041237,3.227,-9.137,-0.578,-0.002,0.000,0.000,-222313
2.075842958,844048458,3.227,-9.137,-0.578,0.000,0.000,0.000,-222233
2.075914167,844052681,3.266,-9.133,-0.539,0.000,0.000,0.000,-222535
2.07599075,844057901,3.266,-9.133,-0.539,0.000,0.002,0.000,-222573
2.076061792,844064121,3.266,-9.133,-0.617,0.000,0.002,0.000,-223689
2.076133125,844068341,3.266,-9.133,-0.617,0.002,0.000,0.002,-222719
2.0762085,844073561,3.266,-9.176,-0.578,0.002,0.000,0.002,-222609
2.076279375,844078781,3.266,-9.176,-0.578,0.000,0.000,0.000,-222766
2.076363375,844087001,3.266,-9.176,-0.539,0.000,0.000,0.000,-222753
2.076446625,844090221,3.266,-9.176,-0.539,-0.002,0.002,-0.002,-222181
2.076537625,844095442,3.266,-9.133,-0.539,-0.002,0.002,-0.002,-223204
2.076617708,844100663,3.266,-9.133,-0.539,0.000,0.002,0.000,-222055
2.076702458,844106883,3.266,-9.133,-0.539,0.004,0.000,0.002,-222513
2.076786,844111103,3.266,-9.211,-0.617,0.004,0.000,0.002,-222059
2.076861917,844115323,3.227,-9.172,-0.656,0.004,0.000,0.002,-223028
2.076942,844120543,3.227,-9.172,-0.656,0.002,0.000,0.002,-221805
2.077012583,844127763,3.266,-9.176,-0.578,0.002,0.000,0.002,-222899
2.077096208,844130983,3.266,-9.176,-0.578,0.002,0.000,0.000,-222333
2.077252542,844138203,3.266,-9.176,-0.578,0.000,-0.002,0.000,-222086
2.077325583,844144426,3.227,-9.137,-0.578,0.000,-0.002,0.000,-222822
2.077406875,844149646,3.227,-9.137,-0.578,0.000,0.002,0.000,-222335
2.077488917,844155867,3.227,-9.098,-0.656,0.000,0.002,0.000,-222626
2.077571417,844161087,3.227,-9.098,-0.656,0.002,0.002,0.002,-223201
2.077674083,844168308,3.227,-9.098,-0.656,0.000,0.002,-0.002,-222156
2.077774875,844172530,3.266,-9.094,-0.578,0.000,0.002,-0.002,-222105
2.077862583,844177750,3.266,-9.094,-0.578,-0.004,0.002,-0.002,-222635
2.077939375,844183971,3.266,-9.133,-0.578,-0.004,0.002,-0.002,-221735
2.07801675,844189192,3.266,-9.133,-0.578,-0.002,0.000,-0.002,-222286
2.078093875,844194413,3.266,-9.176,-0.617,-0.002,0.000,-0.002,-222704
2.078204625,844198634,3.266,-9.176,-0.617,0.000,0.000,0.000,-221989
2.078278042,844204854,3.266,-9.133,-0.617,0.000,0.000,0.000,-222705
2.078421,844209074,3.266,-9.133,-0.617,0.004,0.002,0.000,-222428
2.078494958,844214294,3.227,-9.098,-0.578,0.004,0.002,0.000,-222319
2.100360083,844218514,3.227,-9.098,-0.578,0.000,0.002,0.000,-222564
2.100471292,844224734,3.266,-9.176,-0.617,0.000,0.002,0.000,-222138
2.100572875,844228954,3.266,-9.176,-0.617,-0.002,0.002,0.002,-223157
2.100664042,844234175,3.266,-9.133,-0.617,-0.002,0.002,0.002,-222074
2.100738,844238396,3.266,-9.133,-0.617,-0.002,0.002,0.000,-221860
2.100811875,844244617,3.266,-9.176,-0.578,-0.002,0.002,0.000,-223237
2.100884333,844248838,3.266,-9.176,-0.578,0.000,0.000,0.002,-222003
2.10095725,844254059,3.227,-9.137,-0.617,0.000,0.000,0.002,-221999
2.101029458,844259279,3.227,-9.137,-0.617,0.002,0.000,0.002,-222665
2.10110525,844267499,3.227,-9.137,-0.617,-0.002,0.000,-0.004,-222339
2.10118025,844271720,3.266,-9.133,-0.617,-0.002,0.000,-0.004,-222026
2.101275125,844275941,3.266,-9.133,-0.578,-0.002,0.000,-0.004,-222161
2.101368917,844280162,3.266,-9.133,-0.578,-0.002,0.002,0.000,-223054
2.104407625,844286383,3.227,-9.137,-0.617,-0.002,0.002,0.000,-221620
2.10852275,844290604,3.227,-9.137,-0.617,-0.002,0.000,-0.002,-222330
2.113832333,844295825,3.227,-9.172,-0.578,-0.002,0.000,-0.002,-222406
2.133831542,844301046,3.227,-9.172,-0.578,-0.002,0.002,0.000,-221663
2.13391,844309267,3.227,-9.172,-0.578,0.002,0.000,0.000,-223268
2.133982083,844313487,3.266,-9.176,-0.617,0.002,0.000,0.000,-222182
2.136739042,844318707,3.266,-9.176,-0.617,0.000,0.000,0.002,-222292
2.143945417,844325927,3.227,-9.137,-0.539,0.000,0.000,0.002,-222065
2.149059417,844331147,3.227,-9.137,-0.539,-0.002,0.002,0.002,-221669
2.167089667,844336368,3.266,-9.094,-0.656,-0.002,0.002,0.002,-222091
2.167162583,844340589,3.266,-9.094,-0.656,0.000,0.002,0.000,-222136
2.167234417,844346809,3.227,-9.172,-0.617,0.000,0.002,0.000,-222620
2.169190125,844351029,3.227,-9.172,-0.617,0.002,0.000,-0.002,-221395
2.175235958,844357250,3.191,-9.133,-0.656,0.002,0.000,-0.002,-222345
2.1814595,844363471,3.191,-9.133,-0.656,0.002,0.000,0.002,-222270
2.200399792,844368691,3.191,-9.133,-0.656,0.000,0.002,-0.002,-221844
2.200474,844373912,3.227,-9.137,-0.539,0.000,0.002,-0.002,-222636
2.200555917,844379133,3.227,-9.137,-0.539,0.000,0.000,0.002,-222485
2.20635225,844388353,3.266,-9.176,-0.656,0.000,0.000,0.002,-221475
2.209566792,844391574,3.266,-9.176,-0.656,0.002,0.000,0.002,-222700
2.215789292,844397794,3.266,-9.176,-0.656,-0.002,0.000,0.000,-221711
2.233727542,844405015,3.266,-9.133,-0.578,-0.002,0.000,0.000,-221496
2.233800542,844409236,3.266,-9.133,-0.578,0.000,0.000,0.000,-222739
2.233871958,844414456,3.227,-9.137,-0.617,0.000,0.000,0.000,-221690
2.237706625,844419676,3.227,-9.137,-0.617,0.000,0.000,0.000,-222247
2.244983,844426896,3.266,-9.133,-0.617,0.000,0.000,0.000,-222942
2.249133583,844431116,3.266,-9.133,-0.617,0.002,0.000,-0.002,-222197
2.267067375,844436337,3.266,-9.176,-0.578,0.002,0.000,-0.002,-221486
2.26714075,844441560,3.266,-9.176,-0.578,0.002,0.000,0.000,-222977
2.267211958,844447780,3.266,-9.133,-0.617,0.002,0.000,0.000,-222892
2.270012917,844452000,3.266,-9.133,-0.617,-0.002,0.002,0.002,-222025
2.275158417,844457221,3.266,-9.176,-0.578,-0.002,0.002,0.002,-222702
2.280476667,844462442,3.266,-9.176,-0.578,-0.002,0.002,0.002,-222791
2.300445917,844468663,3.266,-9.176,-0.578,0.000,0.000,0.000,-222164
2.300529917,844472883,3.266,-9.133,-0.617,0.000,0.000,0.000,-222284
2.300614292,844479103,3.266,-9.133,-0.617,0.000,0.000,0.000,-222276
2.304337917,844486323,3.227,-9.172,-0.539,0.000,0.000,0.000,-222841
2.309497958,844491543,3.227,-9.172,-0.539,0.002,0.002,0.000,-222276
2.315687625,844497764,3.266,-9.176,-0.656,0.002,0.002,0.000,-221956
2.333814625,844500984,3.266,-9.176,-0.656,0.000,0.000,0.000,-222646
2.333896375,844508204,3.266,-9.176,-0.656,0.000,0.004,0.002,-222008
2.333969375,844512424,3.227,-9.172,-0.617,0.000,0.004,0.002,-222139
2.335642083,844517645,3.227,-9.172,-0.617,-0.002,0.000,-0.002,-222482
2.341886208,844523866,3.266,-9.133,-0.539,-0.002,0.000,-0.002,-222030
2.34606,844528087,3.266,-9.133,-0.539,0.002,0.000,0.000,-223087
2.367100792,844533307,3.305,-9.176,-0.578,0.002,0.000,0.000,-222402
2.367175167,844538528,3.305,-9.176,-0.578,0.002,0.000,0.004,-221728
2.367247875,844544748,3.227,-9.215,-0.578,0.002,0.000,0.004,-222185
2.367335625,844548968,3.227,-9.215,-0.578,0.002,0.000,0.000,-221448
2.372254292,844554189,3.305,-9.176,-0.578,0.002,0.000,0.000,-222404
2.376406458,844558409,3.305,-9.176,-0.578,-0.002,0.002,0.000,-221774
2.400313792,844564630,3.266,-9.133,-0.656,-0.002,0.002,0.000,-222729
2.400413,844568851,3.266,-9.133,-0.656,-0.008,0.004,0.000,-222864
2.400498375,844574072,3.227,-9.172,-0.617,-0.008,0.004,0.000,-222737
2.400574333,844578293,3.227,-9.172,-0.617,-0.004,0.002,0.002,-222627
2.402542375,844584514,3.227,-9.137,-0.617,-0.004,0.002,0.002,-222424
2.407688333,844589735,3.227,-9.137,-0.617,0.000,0.002,0.002,-221854
2.412931708,844594955,3.227,-9.137,-0.617,0.000,0.002,0.002,-222635
2.433735042,844600175,3.227,-9.137,-0.617,0.000,0.000,0.004,-221688
2.433815458,844608395,3.266,-9.176,-0.539,0.000,0.000,0.004,-222679
2.433890125,844613615,3.266,-9.176,-0.539,0.000,0.000,-0.002,-222681
2.436824125,844618836,3.266,-9.176,-0.539,0.000,0.000,-0.002,-221532
2.442029042,844624057,3.266,-9.176,-0.539,-0.002,0.000,0.000,-222910
2.4473045,844629278,3.266,-9.176,-0.539,0.000,0.002,0.002,-222096
2.467044667,844634498,3.227,-9.172,-0.617,0.000,0.002,0.002,-222244
2.467126333,844644718,3.227,-9.172,-0.617,0.000,0.000,0.000,-222757
2.467991208,844649938,3.227,-9.172,-0.617,0.000,0.000,0.000,-222233
2.473172958,844655158,3.266,-9.133,-0.617,0.000,0.000,0.000,-222144
2.478386958,844660378,3.266,-9.133,-0.617,0.000,0.000,0.000,-221959
2.500562583,844666598,3.266,-9.133,-0.578,0.000,0.000,0.000,-221781
2.500692417,844670818,3.266,-9.133,-0.578,0.000,0.000,0.000,-221459
2.500773083,844676038,3.227,-9.172,-0.656,0.000,0.000,0.000,-222349
2.500853042,844681258,3.227,-9.172,-0.656,0.000,0.000,0.000,-223095
2.504498208,844686478,3.266,-9.133,-0.539,0.000,0.000,0.000,-221664
2.508667458,844690698,3.266,-9.133,-0.539,0.000,0.000,0.000,-221999
2.513943333,844695919,3.227,-9.137,-0.617,0.000,0.000,0.000,-222647
2.533717333,844701139,3.227,-9.137,-0.617,0.000,0.000,0.000,-222339
2.533806167,844707360,3.266,-9.176,-0.539,0.000,0.000,0.000,-222660
2.533887042,844712581,3.266,-9.176,-0.539,0.000,0.000,0.000,-223273
2.535794333,844717801,3.266,-9.176,-0.578,0.000,0.000,0.000,-222528
2.540039792,844722022,3.266,-9.176,-0.578,0.000,0.000,0.000,-221084
2.546288667,844728242,3.266,-9.176,-0.578,0.000,0.000,0.000,-222816
2.550383625,844732462,3.266,-9.176,-0.578,0.000,0.000,0.000,-222644
2.567077083,844737682,3.266,-9.133,-0.578,0.000,0.000,0.000,-222478
2.567155458,844742902,3.266,-9.133,-0.578,0.000,0.000,0.000,-222500
2.567228583,844749122,3.227,-9.172,-0.617,0.000,0.000,0.000,-222279
2.572379208,844754343,3.227,-9.172,-0.617,0.000,0.000,0.000,-222117
2.577498875,844759563,3.227,-9.172,-0.617,0.000,0.000,0.000,-223104
2.600414625,844764783,3.266,-9.133,-0.578,0.000,0.000,0.000,-222258
2.600490542,844769003,3.266,-9.133,-0.578,0.000,0.000,0.000,-221498
2.600563917,844773223,3.266,-9.133,-0.578,0.000,0.000,0.000,-221941
2.600637333,844778443,3.227,-9.137,-0.578,0.000,0.000,0.000,-223542
2.602612917,844784663,3.227,-9.137,-0.578,0.000,0.000,0.000,-221966
2.608805833,844790883,3.227,-9.172,-0.578,0.000,0.000,0.000,-222677
2.612054708,844794103,3.227,-9.172,-0.578,0.000,0.000,0.000,-222565
2.633760167,844799323,3.266,-9.133,-0.617,0.000,0.000,0.000,-222774
2.633839167,844804543,3.266,-9.133,-0.617,0.000,0.000,0.000,-221882
2.633912417,844810763,3.266,-9.176,-0.617,0.000,0.000,0.000,-222968
2.634012167,844814983,3.266,-9.176,-0.617,0.000,0.000,0.000,-222019
2.638166667,844820203,3.305,-9.133,-0.578,0.000,0.000,0.000,-222200
2.643336417,844825423,3.305,-9.133,-0.578,0.000,0.000,0.000,-223171
2.650628458,844832644,3.305,-9.133,-0.578,0.000,0.000,0.000,-222254
2.667056208,844836864,3.266,-9.133,-0.656,0.000,0.000,0.000,-221797
2.667137125,844842084,3.266,-9.133,-0.656,0.000,0.000,0.000,-222687
2.667228667,844848304,3.266,-9.094,-0.656,0.000,0.000,0.000,-222875
2.671520292,844853524,3.266,-9.094,-0.656,0.000,0.000,0.000,-221689
2.676839625,844858744,3.227,-9.137,-0.578,0.000,0.000,0.000,-222470
2.680893458,844862964,3.227,-9.137,-0.578,0.000,0.000,0.000,-223252
2.700383125,844869184,3.266,-9.133,-0.617,0.000,0.000,0.000,-222389
2.700466292,844873404,3.266,-9.133,-0.617,0.000,0.000,0.000,-223017
2.700556917,844878624,3.227,-9.137,-0.578,0.000,0.000,0.000,-222397
2.701866333,844883844,3.227,-9.137,-0.578,0.000,0.000,0.000,-222135
2.712043583,844894064,3.227,-9.137,-0.578,0.000,0.000,0.000,-221146
2.716218,844898284,3.227,-9.137,-0.617,0.000,0.000,0.000,-223056
2.733728875,844903504,3.227,-9.137,-0.617,0.000,0.000,0.000,-222225
2.7338095,844909724,3.305,-9.176,-0.578,0.000,0.000,0.000,-223105
2.73390625,844914944,3.305,-9.176,-0.578,0.000,0.000,0.000,-222781
2.738137667,844920164,3.266,-9.133,-0.656,0.000,0.000,0.000,-221736
2.743455208,844925384,3.266,-9.133,-0.656,0.000,0.000,0.000,-222107
2.750635958,844932604,3.266,-9.133,-0.617,0.000,0.000,0.000,-222743
2.767048042,844935824,3.266,-9.133,-0.617,0.000,0.000,0.000,-222718
2.767131417,844942044,3.266,-9.133,-0.617,0.000,0.000,0.000,-222451
2.767213083,844948264,3.266,-9.176,-0.578,0.000,0.000,0.000,-221640
2.77050425,844952484,3.266,-9.176,-0.578,0.000,0.000,0.000,-222071
2.7757715,844957704,3.227,-9.137,-0.578,0.000,0.000,0.000,-222783
2.7799605,844961924,3.227,-9.137,-0.578,0.000,0.000,0.000,-223089
2.800430167,844968144,3.266,-9.176,-0.539,0.000,0.000,0.000,-222200
2.800506292,844972364,3.266,-9.176,-0.539,0.000,0.000,0.000,-222217
2.800581042,844977585,3.266,-9.176,-0.578,0.000,0.000,0.000,-222538
2.800735792,844982805,3.266,-9.176,-0.578,0.000,0.000,0.000,-222206
2.806054083,844988025,3.191,-9.133,-0.617,0.000,0.000,0.000,-222485
2.811301,844993245,3.191,-9.133,-0.617,0.000,0.000,0.000,-222766
2.816457458,844998465,3.227,-9.137,-0.617,0.000,0.000,0.000,-222337
2.833890333,845003685,3.227,-9.137,-0.617,0.000,0.000,0.000,-222538
2.833974042,845009905,3.305,-9.176,-0.578,0.000,0.000,0.000,-222884
2.834073042,845015125,3.305,-9.176,-0.578,0.000,0.000,0.000,-222290
2.839306167,845021345,3.227,-9.172,-0.539,0.000,0.000,0.000,-222338
2.845696,845027565,3.227,-9.172,-0.539,0.000,0.000,0.000,-222979
2.867297375,845032785,3.227,-9.172,-0.539,0.000,0.000,0.000,-222066
2.867388958,845038006,3.227,-9.172,-0.617,0.000,0.000,0.000,-222265
2.867476625,845042226,3.191,-9.176,-0.656,0.000,0.000,0.000,-223488
2.867570542,845048446,3.191,-9.176,-0.656,0.000,0.000,0.000,-221550
2.872682083,845054666,3.191,-9.176,-0.656,0.000,0.000,0.000,-222025
2.876979125,845058886,3.227,-9.172,-0.539,0.000,0.000,0.000,-222454
2.882111667,845064106,3.227,-9.172,-0.539,0.000,0.000,0.000,-222152
2.900416208,845070326,3.227,-9.098,-0.656,0.000,0.000,0.000,-221643
2.90049525,845075546,3.227,-9.098,-0.656,0.000,0.000,0.000,-222879
2.90056875,845080766,3.266,-9.133,-0.656,0.000,0.000,0.000,-222771
2.903987167,845085986,3.266,-9.133,-0.656,0.000,0.000,0.000,-222358
2.909306875,845091206,3.266,-9.133,-0.617,0.000,0.000,0.000,-222815
2.913494583,845095426,3.266,-9.133,-0.617,0.000,0.000,0.000,-222092
2.933715542,845100646,3.266,-9.176,-0.578,0.000,0.000,0.000,-221982
2.933797417,845105866,3.266,-9.176,-0.578,0.000,0.000,0.000,-222677
2.933878667,845114087,3.227,-9.172,-0.539,0.000,0.000,0.000,-221800
2.935322167,845117307,3.227,-9.172,-0.539,0.000,0.000,0.000,-222171
2.941576958,845123527,3.227,-9.172,-0.539,0.000,0.000,0.000,-222443
2.947760542,845129747,3.227,-9.172,-0.617,0.000,0.000,0.000,-222409
2.96706375,845134967,3.227,-9.172,-0.617,0.000,0.000,0.000,-222268
2.967136292,845140187,3.266,-9.176,-0.578,0.000,0.000,0.000,-222171
2.967209,845147407,3.266,-9.176,-0.578,0.000,0.000,0.000,-221726
2.971670375,845153627,3.266,-9.176,-0.578,0.000,0.000,0.000,-222437
2.97586125,845157847,3.266,-9.133,-0.578,0.000,0.000,0.000,-222176
2.981093083,845163067,3.266,-9.133,-0.578,0.000,0.000,0.000,-222989
3.000497958,845169288,3.227,-9.172,-0.617,0.000,0.000,0.000,-222065
3.000570833,845174508,3.227,-9.172,-0.617,0.000,0.000,0.000,-222303
3.000643167,845179728,3.227,-9.137,-0.617,0.000,0.000,0.000,-223323
3.002969958,845184948,3.227,-9.137,-0.617,0.000,0.000,0.000,-221968
3.00911475,845191168,3.227,-9.172,-0.578,0.000,0.000,0.000,-222880
3.013345333,845195388,3.227,-9.172,-0.578,0.000,0.000,0.000,-222877
3.033695292,845200608,3.266,-9.176,-0.617,0.000,0.000,0.000,-222389
3.033769292,845205828,3.266,-9.176,-0.617,0.000,0.000,0.000,-221903
3.033842458,845212048,3.266,-9.176,-0.617,0.000,0.000,0.000,-222310
3.034223083,845216268,3.266,-9.176,-0.617,0.000,0.000,0.000,-221565
3.039521667,845221488,3.227,-9.137,-0.617,0.000,0.000,0.000,-221715
3.043732708,845225708,3.227,-9.137,-0.617,0.000,0.000,0.000,-222315
3.050961083,845232928,3.227,-9.137,-0.617,0.000,0.000,0.000,-222036
3.067189417,845237148,3.227,-9.137,-0.617,0.000,0.000,0.000,-222037
3.067273667,845242368,3.227,-9.137,-0.617,0.000,0.000,0.000,-222694
3.067356167,845247588,3.227,-9.137,-0.617,0.000,0.000,0.000,-222460
3.072808958,845254808,3.227,-9.137,-0.617,0.000,0.000,0.000,-221853
3.07705975,845259028,3.266,-9.094,-0.539,0.000,0.000,0.000,-222542
3.081257375,845263248,3.266,-9.094,-0.539,0.000,0.000,0.000,-222674
3.100632625,845269468,3.305,-9.176,-0.617,0.000,0.000,0.000,-222291
3.100717083,845273688,3.305,-9.176,-0.617,0.000,0.000,0.000,-222737
3.100800458,845278908,3.266,-9.133,-0.656,0.000,0.000,0.000,-222769
3.102145,845284128,3.266,-9.133,-0.656,0.000,0.000,0.000,-222599
3.10834075,845290350,3.266,-9.133,-0.578,0.000,0.000,0.000,-222443
3.112605625,845294570,3.266,-9.133,-0.578,0.000,0.000,0.000,-222544
3.133881083,845299790,3.266,-9.133,-0.578,0.000,0.000,0.000,-221579
3.133964,845305010,3.266,-9.133,-0.578,0.000,0.000,0.000,-222164
3.134045958,845311230,3.266,-9.133,-0.578,0.000,0.000,0.000,-223299
3.134127667,845315450,3.266,-9.133,-0.578,0.000,0.000,0.000,-221887
3.138669792,845320670,3.266,-9.176,-0.578,0.000,0.000,0.000,-222011
3.1439055,845325890,3.266,-9.176,-0.578,0.000,0.000,0.000,-222155
3.151074458,845333110,3.266,-9.094,-0.656,0.000,0.000,0.000,-222164
3.1670235,845337330,3.266,-9.094,-0.656,0.000,0.000,0.000,-221277
3.167106917,845342552,3.227,-9.137,-0.500,0.000,0.000,0.000,-222165
3.167190458,845348772,3.227,-9.137,-0.500,0.000,0.000,0.000,-222662
3.17202425,845353995,3.227,-9.137,-0.500,0.000,0.000,0.000,-222177
3.177242333,845359215,3.227,-9.137,-0.539,0.000,0.000,0.000,-222447
3.181449292,845363435,3.266,-9.176,-0.578,0.000,0.000,0.000,-222265
3.20037025,845368655,3.266,-9.176,-0.578,0.000,0.000,0.000,-221574
3.200456917,845374875,3.266,-9.137,-0.691,0.000,0.000,0.000,-222369
3.200542292,845380095,3.266,-9.137,-0.691,0.000,0.000,0.000,-222592
3.203328375,845385315,3.266,-9.133,-0.617,0.000,0.000,0.000,-221512
3.206561125,845388535,3.266,-9.133,-0.617,0.000,0.000,0.000,-222364
3.214806667,845396755,3.266,-9.133,-0.617,0.000,0.000,0.000,-221976
3.220973917,845402975,3.227,-9.172,-0.539,0.000,0.000,0.000,-222054
3.233707875,845409195,3.227,-9.172,-0.539,0.000,0.000,0.000,-222486
3.2338,845414415,3.227,-9.172,-0.539,0.000,0.000,0.000,-222841
3.238656083,845420635,3.266,-9.133,-0.617,0.000,0.000,0.000,-222085
3.24389575,845425855,3.266,-9.133,-0.617,0.000,0.000,0.000,-222825
3.251101208,845433075,3.266,-9.176,-0.578,0.000,0.000,0.000,-222473
3.267027417,845438295,3.266,-9.176,-0.578,0.000,0.000,0.000,-222714
3.267100583,845442515,3.266,-9.176,-0.500,0.000,0.000,0.000,-222800
3.267173125,845446735,3.266,-9.176,-0.500,0.000,0.000,0.000,-222138
3.271974708,845453955,3.305,-9.176,-0.617,0.000,0.000,0.000,-222767
3.277211792,845459175,3.305,-9.176,-0.617,0.000,0.000,0.000,-222612
3.283357167,845465395,3.266,-9.133,-0.578,0.000,0.000,0.000,-222167
3.300388708,845468615,3.266,-9.133,-0.578,0.000,0.000,0.000,-222037
3.300479042,845475835,3.266,-9.133,-0.578,0.000,0.000,0.000,-222515
3.300567125,845482055,3.266,-9.094,-0.539,0.000,0.000,0.000,-222740
3.305294833,845487275,3.266,-9.094,-0.539,0.000,0.000,0.000,-221646
3.311519875,845493495,3.266,-9.133,-0.578,0.000,0.000,0.000,-222130
3.316677833,845498715,3.266,-9.133,-0.578,0.000,0.000,0.000,-222018
3.333742875,845503935,3.266,-9.133,-0.617,0.000,0.000,0.000,-222045
3.333819917,845509155,3.266,-9.133,-0.617,0.000,0.000,0.000,-222837
3.333892667,845515375,3.266,-9.133,-0.617,0.000,0.000,0.000,-221676
3.33762,845519595,3.266,-9.176,-0.617,0.000,0.000,0.000,-222004
3.341747042,845523800,3.266,-9.133,-0.617,0.000,0.000,0.000,-222004
3.346990958,845529020,3.266,-9.133,-0.617,0.000,0.000,0.000,-223332
3.352193333,845534240,3.266,-9.133,-0.617,0.000,0.000,0.000,-222525
3.367050125,845539460,3.266,-9.133,-0.656,0.000,0.000,0.000,-221631
3.367126083,845544680,3.266,-9.133,-0.656,0.000,0.000,0.000,-222546
3.368991,845550900,3.227,-9.172,-0.578,0.000,0.000,0.000,-223043
3.374153042,845556120,3.227,-9.172,-0.578,0.000,0.000,0.000,-221493
3.379389125,845561341,3.266,-9.176,-0.617,0.000,0.000,0.000,-222825
3.383517208,845565562,3.266,-9.176,-0.617,0.000,0.000,0.000,-221977
3.400429,845572782,3.266,-9.211,-0.617,0.000,0.000,0.000,-222560
3.400501833,845578002,3.266,-9.211,-0.617,0.000,0.000,0.000,-222269
3.401303583,845583222,3.266,-9.176,-0.539,0.000,0.000,0.000,-221894
3.407418167,845589442,3.266,-9.176,-0.539,0.000,0.000,0.000,-222707
3.413687333,845595662,3.266,-9.176,-0.539,0.000,0.000,0.000,-221931
3.417851083,845599882,3.191,-9.133,-0.578,0.000,0.000,0.000,-222123
3.433736542,845605102,3.191,-9.133,-0.578,0.000,0.000,0.000,-221791
3.433811583,845611322,3.266,-9.133,-0.578,0.000,0.000,0.000,-222828
3.434512417,845616544,3.266,-9.133,-0.578,0.000,0.000,0.000,-223139
3.439795625,845621764,3.227,-9.137,-0.578,0.000,0.000,0.000,-222064
3.445015542,845626985,3.227,-9.137,-0.578,0.000,0.000,0.000,-222310
3.451287833,845633205,3.266,-9.133,-0.617,0.000,0.000,0.000,-222351
3.467046708,845637425,3.266,-9.133,-0.617,0.000,0.000,0.000,-222040
3.467119833,845642645,3.305,-9.133,-0.578,0.000,0.000,0.000,-222465
3.468907917,845650865,3.305,-9.133,-0.578,0.000,0.000,0.000,-221642
3.474053,845656085,3.305,-9.133,-0.578,0.000,0.000,0.000,-221800
3.479337708,845661305,3.266,-9.176,-0.617,0.000,0.000,0.000,-222487
3.483542083,845665525,3.266,-9.176,-0.617,0.000,0.000,0.000,-221821
3.500450375,845671745,3.266,-9.094,-0.539,0.000,0.000,0.000,-222325
3.500523833,845675965,3.266,-9.094,-0.539,0.000,0.000,0.000,-223240
3.500596625,845681185,3.227,-9.098,-0.617,0.000,0.000,0.000,-222288
3.503443542,845685405,3.227,-9.098,-0.617,0.000,0.000,0.000,-222003
3.509686417,845691625,3.305,-9.094,-0.617,0.000,0.000,0.000,-221636
3.513871708,845695845,3.305,-9.094,-0.617,0.000,0.000,0.000,-222963
3.519088,845701065,3.227,-9.137,-0.578,0.000,0.000,0.000,-222195
3.533881917,845706285,3.227,-9.137,-0.578,0.000,0.000,0.000,-223102
3.533969875,845712505,3.227,-9.172,-0.617,0.000,0.000,0.000,-223022
3.534771042,845716725,3.227,-9.172,-0.617,0.000,0.000,0.000,-222491
3.538951083,845720945,3.266,-9.176,-0.617,0.000,0.000,0.000,-221877
3.543192,845725165,3.266,-9.176,-0.617,0.000,0.000,0.000,-221916
3.549387042,845731385,3.227,-9.137,-0.617,0.000,0.000,0.000,-222519
3.567128125,845735605,3.227,-9.137,-0.617,0.000,0.000,0.000,-221477
3.567202917,845740825,3.266,-9.133,-0.539,0.000,0.000,0.000,-222642
3.567275583,845746045,3.266,-9.133,-0.539,0.000,0.000,0.000,-223177
3.571271167,845753265,3.227,-9.098,-0.617,0.000,0.000,0.000,-221959
3.576520792,845758485,3.227,-9.098,-0.617,0.000,0.000,0.000,-222641
3.582659125,845764705,3.266,-9.133,-0.578,0.000,0.000,0.000,-222936
3.600395,845767925,3.266,-9.133,-0.578,0.000,0.000,0.000,-222194
3.600468625,845775145,3.266,-9.133,-0.578,0.000,0.000,0.000,-222270
3.600541458,845779365,3.266,-9.176,-0.500,0.000,0.000,0.000,-222746
3.60254975,845784585,3.266,-9.176,-0.500,0.000,0.000,0.000,-222390
3.608781375,845790805,3.266,-9.133,-0.617,0.000,0.000,0.000,-222973
3.613069625,845795025,3.266,-9.133,-0.617,0.000,0.000,0.000,-222420
3.618179542,845800245,3.266,-9.133,-0.617,0.000,0.000,0.000,-222494
3.633726542,845805465,3.266,-9.133,-0.617,0.000,0.000,0.000,-221673
3.633816458,845811685,3.227,-9.137,-0.656,0.000,0.000,0.000,-222271
3.633904417,845815905,3.227,-9.137,-0.656,0.000,0.000,0.000,-222655
3.639134833,845821125,3.305,-9.133,-0.656,0.000,0.000,0.000,-222043
3.644383792,845826346,3.305,-9.133,-0.656,0.000,0.000,0.000,-222859
3.650535792,845832567,3.266,-9.133,-0.617,0.000,0.000,0.000,-221967
3.667053583,845836787,3.266,-9.133,-0.617,0.000,0.000,0.000,-222211
3.667127,845842007,3.227,-9.137,-0.578,0.000,0.000,0.000,-221917
3.667199292,845847227,3.227,-9.137,-0.578,0.000,0.000,0.000,-222773
3.670466542,845852447,3.227,-9.172,-0.578,0.000,0.000,0.000,-221557
3.674695042,845856667,3.227,-9.172,-0.578,0.000,0.000,0.000,-222315
3.67985275,845861887,3.227,-9.137,-0.656,0.000,0.000,0.000,-222418
3.685071875,845867107,3.227,-9.137,-0.656,0.000,0.000,0.000,-221673
3.700386833,845873329,3.266,-9.176,-0.578,0.000,0.000,0.000,-222869
3.700459583,845878549,3.266,-9.176,-0.578,0.000,0.000,0.000,-222817
3.701780333,845883769,3.266,-9.176,-0.617,0.000,0.000,0.000,-221941
3.707004958,845888989,3.266,-9.176,-0.617,0.000,0.000,0.000,-222215
3.713176292,845895209,3.266,-9.176,-0.617,0.000,0.000,0.000,-222141
3.717462167,845899430,3.227,-9.098,-0.617,0.000,0.000,0.000,-222078
3.733726792,845906650,3.227,-9.098,-0.617,0.000,0.000,0.000,-222926
3.733799333,845911872,3.227,-9.098,-0.617,0.000,0.000,0.000,-222316
3.734020583,845916092,3.227,-9.098,-0.617,0.000,0.000,0.000,-222411
3.739341917,845921312,3.227,-9.172,-0.617,0.000,0.000,0.000,-222499
3.743566875,845925532,3.227,-9.172,-0.617,0.000,0.000,0.000,-223344
3.749779292,845931752,3.227,-9.137,-0.539,0.000,0.000,0.000,-221445
3.767087875,845935972,3.227,-9.137,-0.539,0.000,0.000,0.000,-221660
3.767177625,845941192,3.266,-9.176,-0.578,0.000,0.000,0.000,-222413
3.767265208,845946412,3.266,-9.176,-0.578,0.000,0.000,0.000,-222709
3.769658917,845951632,3.227,-9.137,-0.578,0.000,0.000,0.000,-222198
3.773876792,845955852,3.227,-9.137,-0.578,0.000,0.000,0.000,-223051
3.779113917,845961072,3.266,-9.133,-0.617,0.000,0.000,0.000,-222080
3.783249667,845965292,3.266,-9.133,-0.617,0.000,0.000,0.000,-222620
3.800400167,845971513,3.266,-9.133,-0.578,0.000,0.000,0.000,-222049
3.800475208,845975735,3.266,-9.133,-0.578,0.000,0.000,0.000,-222268
3.800551125,845980955,3.227,-9.172,-0.617,0.000,0.000,0.000,-222466
3.804225417,845986175,3.227,-9.172,-0.617,0.000,0.000,0.000,-222442
3.811408167,845993395,3.266,-9.133,-0.617,0.000,0.000,0.000,-221822
3.816643292,845998615,3.266,-9.133,-0.617,0.000,0.000,0.000,-222117
3.833638708,846002835,3.266,-9.133,-0.578,0.000,0.000,0.000,-221821
3.833728708,846007055,3.266,-9.133,-0.578,0.000,0.000,0.000,-222658
3.833818,846013275,3.266,-9.094,-0.656,0.000,0.000,0.000,-222826
3.83653425,846018495,3.266,-9.094,-0.656,0.000,0.000,0.000,-222339
3.84173725,846023715,3.266,-9.133,-0.617,0.000,0.000,0.000,-222487
3.84596475,846027935,3.266,-9.133,-0.617,0.000,0.000,0.000,-223218
3.853136125,846035155,3.227,-9.172,-0.578,0.000,0.000,0.000,-222825
3.867081,846040376,3.227,-9.172,-0.578,0.000,0.000,0.000,-222032
3.867156417,846045596,3.227,-9.172,-0.578,0.000,0.000,0.000,-221858
3.869750417,846051816,3.227,-9.172,-0.617,0.000,0.000,0.000,-222409
3.874065417,846056036,3.227,-9.172,-0.617,0.000,0.000,0.000,-221845
3.879286417,846061256,3.266,-9.133,-0.656,0.000,0.000,0.000,-223011
3.884536,846066476,3.266,-9.133,-0.656,0.000,0.000,0.000,-221853
3.900401167,846071696,3.266,-9.133,-0.578,0.000,0.000,0.000,-221561
3.900474833,846075917,3.266,-9.133,-0.578,0.000,0.000,0.000,-222319
3.900548,846081137,3.266,-9.133,-0.656,0.000,0.000,0.000,-222509
3.904371042,846086357,3.266,-9.133,-0.656,0.000,0.000,0.000,-222113
3.912618833,846094577,3.266,-9.176,-0.656,0.000,0.000,0.000,-223280
3.917732792,846099797,3.266,-9.176,-0.656,0.000,0.000,0.000,-222875
3.933737417,846105017,3.266,-9.176,-0.656,0.000,0.000,0.000,-221511
3.933812167,846111237,3.266,-9.176,-0.539,0.000,0.000,0.000,-222668
3.934480583,846116457,3.266,-9.176,-0.539,0.000,0.000,0.000,-220918
3.939733125,846121677,3.227,-9.172,-0.539,0.000,0.000,0.000,-221979
3.943926542,846125897,3.227,-9.172,-0.539,0.000,0.000,0.000,-222440
3.950129125,846132117,3.266,-9.133,-0.617,0.000,0.000,0.000,-221466
3.967042917,846136339,3.266,-9.133,-0.617,0.000,0.000,0.000,-222277
3.967116375,846141559,3.266,-9.133,-0.617,0.000,0.000,0.000,-222151
3.967188833,846146779,3.266,-9.133,-0.617,0.000,0.000,0.000,-222642
3.972040792,846153999,3.266,-9.176,-0.617,0.000,0.000,0.000,-221871
3.979251417,846161220,3.266,-9.176,-0.617,0.000,0.000,0.000,-223210
3.9844935,846166440,3.266,-9.176,-0.617,0.000,0.000,0.000,-222173
4.000413417,846172660,3.227,-9.172,-0.617,0.000,0.000,0.000,-222868
4.000494833,846177880,3.227,-9.172,-0.617,0.000,0.000,0.000,-223258
4.001176208,846183100,3.305,-9.133,-0.617,0.000,0.000,0.000,-223060
4.005348333,846187320,3.305,-9.133,-0.617,0.000,0.000,0.000,-220860
4.011622542,846193542,3.266,-9.176,-0.617,0.000,0.000,0.000,-221938
4.033735875,846198762,3.266,-9.176,-0.617,0.000,0.000,0.000,-223293
4.033813833,846203982,3.266,-9.133,-0.617,0.000,0.000,0.000,-222953
4.033887417,846209202,3.266,-9.133,-0.617,0.000,0.000,0.000,-222556
4.033959833,846215422,3.266,-9.133,-0.617,0.000,0.000,0.000,-222758
4.038652292,846220642,3.227,-9.172,-0.578,0.000,0.000,0.000,-221915
4.0428935,846224862,3.266,-9.133,-0.578,0.000,0.000,0.000,-223082
4.048112417,846230082,3.266,-9.133,-0.578,0.000,0.000,0.000,-222092
4.06702025,846236302,3.227,-9.137,-0.578,0.000,0.000,0.000,-221767
4.0671035,846241522,3.227,-9.137,-0.578,0.000,0.000,0.000,-222380
4.067187125,846246742,3.227,-9.137,-0.578,0.000,0.000,0.000,-222094
4.069998292,846251962,3.266,-9.176,-0.656,0.000,0.000,0.000,-221522
4.075134292,846257182,3.266,-9.176,-0.656,0.000,0.000,0.000,-222308
4.0804275,846262402,3.305,-9.176,-0.539,0.000,0.000,0.000,-223177
4.100398333,846267622,3.305,-9.176,-0.539,0.000,0.000,0.000,-221748
4.100471625,846273842,3.266,-9.133,-0.578,0.000,0.000,0.000,-222149
4.100551583,846278062,3.266,-9.133,-0.578,0.000,0.000,0.000,-223338
4.101258583,846283282,3.227,-9.137,-0.617,0.000,0.000,0.000,-222027
4.1065135,846288502,3.227,-9.137,-0.617,0.000,0.000,0.000,-221883
4.112748292,846294722,3.227,-9.137,-0.578,0.000,0.000,0.000,-223169
4.133720958,846299942,3.227,-9.137,-0.578,0.000,0.000,0.000,-223056
4.133794833,846305163,3.266,-9.133,-0.578,0.000,0.000,0.000,-221915
4.133867833,846310383,3.266,-9.133,-0.578,0.000,0.000,0.000,-222810
4.135637917,846317603,3.305,-9.094,-0.578,0.000,0.000,0.000,-222461
4.138833917,846320823,3.305,-9.094,-0.578,0.000,0.000,0.000,-222747
4.14500975,846327043,3.305,-9.094,-0.578,0.000,0.000,0.000,-222305
4.151292083,846333264,3.227,-9.137,-0.656,0.000,0.000,0.000,-222623
4.167110542,846337484,3.227,-9.137,-0.656,0.000,0.000,0.000,-222646
4.16718575,846342704,3.227,-9.137,-0.617,0.000,0.000,0.000,-222437
4.167259,846346924,3.227,-9.137,-0.617,0.000,0.000,0.000,-222745
4.171183542,846353145,3.227,-9.137,-0.578,0.000,0.000,0.000,-222374
4.175326167,846357365,3.227,-9.137,-0.578,0.000,0.000,0.000,-222483
4.180639167,846362585,3.266,-9.133,-0.578,0.000,0.000,0.000,-222663
4.184855125,846366805,3.266,-9.133,-0.578,0.000,0.000,0.000,-221634
4.200601583,846374025,3.266,-9.176,-0.617,0.000,0.000,0.000,-221973
4.200687083,846379245,3.266,-9.176,-0.617,0.000,0.000,0.000,-222792
4.202425958,846384465,3.266,-9.133,-0.539,0.000,0.000,0.000,-222897
4.2067225,846388685,3.266,-9.133,-0.539,0.000,0.000,0.000,-222291
4.213890125,846395905,3.227,-9.137,-0.578,0.000,0.000,0.000,-222504
4.217084125,846399125,3.227,-9.137,-0.578,0.000,0.000,0.000,-221723
4.233948667,846404346,3.266,-9.176,-0.578,0.000,0.000,0.000,-222618
4.234101292,846411566,3.266,-9.176,-0.578,0.000,0.000,0.000,-223090
4.234763792,846416786,3.266,-9.176,-0.578,0.000,0.000,0.000,-221558
4.240049083,846422006,3.266,-9.133,-0.656,0.000,0.000,0.000,-222089
4.244260708,846426226,3.266,-9.133,-0.656,0.000,0.000,0.000,-222089
4.2504815,846432446,3.266,-9.133,-0.656,0.000,0.000,0.000,-222370
4.267056042,846437666,3.266,-9.133,-0.656,0.000,0.000,0.000,-222209
4.267145958,846442886,3.266,-9.133,-0.578,0.000,0.000,0.000,-222928
4.267233083,846447106,3.266,-9.133,-0.578,0.000,0.000,0.000,-222114
4.271342792,846453326,3.227,-9.137,-0.617,0.000,0.000,0.000,-222469
4.275583417,846457546,3.227,-9.137,-0.617,0.000,0.000,0.000,-222383
4.280731208,846462766,3.266,-9.133,-0.617,0.000,0.000,0.000,-222977
4.285121208,846466986,3.266,-9.133,-0.617,0.000,0.000,0.000,-222003
4.300391292,846473206,3.266,-9.133,-0.539,0.000,0.000,0.000,-222461
4.300472417,846477426,3.266,-9.133,-0.539,0.000,0.000,0.000,-222552
4.3005645,846482646,3.227,-9.176,-0.691,0.000,0.000,0.000,-223308
4.305897792,846487866,3.227,-9.176,-0.691,0.000,0.000,0.000,-221931
4.312141125,846494086,3.266,-9.176,-0.578,0.000,0.000,0.000,-223181
4.316276208,846498306,3.266,-9.176,-0.578,0.000,0.000,0.000,-222451
4.333716292,846503526,3.266,-9.133,-0.578,0.000,0.000,0.000,-222713
4.333804042,846507746,3.266,-9.133,-0.578,0.000,0.000,0.000,-222214
4.333891917,846513966,3.305,-9.176,-0.578,0.000,0.000,0.000,-222440
4.3362035,846518186,3.305,-9.176,-0.578,0.000,0.000,0.000,-222513
4.341442042,846523406,3.227,-9.215,-0.617,0.000,0.000,0.000,-222508
4.345657833,846527626,3.227,-9.215,-0.617,0.000,0.000,0.000,-222317
4.351815833,846533846,3.266,-9.094,-0.656,0.000,0.000,0.000,-222009
4.36705975,846538066,3.266,-9.094,-0.656,0.000,0.000,0.000,-221960
4.367150167,846543286,3.266,-9.176,-0.617,0.000,0.000,0.000,-222603
4.36723775,846548506,3.266,-9.176,-0.617,0.000,0.000,0.000,-222580
4.373755208,846555727,3.266,-9.133,-0.578,0.000,0.000,0.000,-222674
4.378973375,846560947,3.266,-9.133,-0.578,0.000,0.000,0.000,-222819
4.383198333,846565167,3.266,-9.133,-0.578,0.000,0.000,0.000,-222258
4.400400125,846570387,3.266,-9.133,-0.578,0.000,0.000,0.000,-221574
4.400474125,846575607,3.227,-9.137,-0.617,0.000,0.000,0.000,-222082
4.400547458,846579827,3.227,-9.137,-0.617,0.000,0.000,0.000,-221874
4.402067667,846584048,3.227,-9.137,-0.617,0.000,0.000,0.000,-221797
4.407399625,846589268,3.227,-9.137,-0.617,0.000,0.000,0.000,-220997
4.413551292,846595488,3.227,-9.172,-0.656,0.000,0.000,0.000,-223527
4.418909583,846600708,3.227,-9.172,-0.656,0.000,0.000,0.000,-222600
4.433772458,846605928,3.266,-9.133,-0.617,0.000,0.000,0.000,-221989
4.433865875,846610148,3.266,-9.133,-0.617,0.000,0.000,0.000,-222456
4.435384125,846617368,3.227,-9.098,-0.617,0.000,0.000,0.000,-222400
4.440638917,846622588,3.227,-9.098,-0.617,0.000,0.000,0.000,-222260
4.44684575,846628808,3.266,-9.133,-0.617,0.000,0.000,0.000,-222229
4.467305833,846635028,3.266,-9.133,-0.617,0.002,0.000,0.002,-222936
4.467500042,846640248,3.266,-9.133,-0.617,0.000,0.000,-0.002,-222127
4.46759125,846645469,3.266,-9.094,-0.656,0.000,0.000,-0.002,-222072
4.467681833,846649690,3.266,-9.094,-0.656,-0.004,-0.002,0.000,-222461
4.474009917,846655911,3.266,-9.094,-0.617,-0.004,-0.002,0.000,-221520
4.479181083,846661132,3.266,-9.094,-0.617,-0.002,0.000,0.000,-222959
4.48438275,846666353,3.266,-9.133,-0.617,-0.002,0.000,0.000,-222114
4.500658708,846674574,3.266,-9.133,-0.617,-0.002,0.000,0.000,-221763
4.500753458,846681795,3.266,-9.133,-0.617,-0.002,0.002,0.000,-222564
4.50611525,846688016,3.266,-9.133,-0.578,-0.002,0.002,0.000,-222291
4.514231792,846696237,3.266,-9.133,-0.578,-0.002,0.002,-0.002,-222477
4.533712458,846703458,3.266,-9.133,-0.578,-0.002,0.002,0.000,-221694
4.533805333,846708679,3.266,-9.176,-0.617,-0.002,0.002,0.000,-222994
4.533896875,846714900,3.266,-9.176,-0.617,-0.002,0.000,0.002,-222609
4.539180458,846721121,3.266,-9.176,-0.617,0.000,-0.002,0.000,-221726
4.544387333,846726342,3.227,-9.137,-0.656,0.000,-0.002,0.000,-223117
4.548609167,846730563,3.227,-9.137,-0.656,0.000,0.000,0.002,-222512
4.56705175,846736783,3.227,-9.098,-0.617,0.000,0.000,0.002,-222485
4.5671465,846742003,3.227,-9.098,-0.617,0.000,-0.002,-0.002,-221735
4.567240667,846747224,3.266,-9.176,-0.500,0.000,-0.002,-0.002,-223027
4.569709417,846751445,3.266,-9.176,-0.500,-0.002,-0.002,0.002,-221989
4.57572025,846757666,3.305,-9.133,-0.578,-0.002,-0.002,0.002,-221664
4.579931875,846761887,3.305,-9.133,-0.578,0.000,0.000,0.000,-222763
4.585160375,846767107,3.266,-9.176,-0.539,0.000,0.000,0.000,-221499
4.600403167,846771327,3.266,-9.176,-0.539,0.004,0.000,0.000,-222211
4.600476167,846778547,3.266,-9.094,-0.617,0.004,0.000,0.000,-223462
4.601818375,846783767,3.266,-9.094,-0.617,0.002,0.000,0.002,-222264
4.607965917,846789987,3.266,-9.133,-0.617,0.002,0.000,0.002,-222133
4.61125675,846793207,3.266,-9.133,-0.617,-0.002,0.002,0.000,-222580
4.617504708,846799428,3.266,-9.133,-0.617,0.000,0.000,-0.002,-223012
4.633727583,846805649,3.266,-9.176,-0.578,0.000,0.000,-0.002,-221912
4.633802083,846809870,3.266,-9.176,-0.578,0.000,0.002,-0.002,-222463
4.634054,846816091,3.227,-9.137,-0.617,0.000,0.002,-0.002,-222310
4.638354,846820312,3.227,-9.137,-0.617,0.000,0.002,0.002,-222107
4.643573458,846825534,3.227,-9.098,-0.617,0.000,0.002,0.002,-222202
4.648796125,846830754,3.227,-9.098,-0.617,-0.002,0.002,0.000,-223192
4.667094167,846837975,3.227,-9.137,-0.578,-0.002,0.002,0.000,-222420
4.667166792,846843196,3.227,-9.137,-0.578,0.000,0.000,0.002,-222921
4.667239542,846848416,3.305,-9.176,-0.578,0.000,0.000,0.002,-221723
4.670685667,846852636,3.305,-9.176,-0.578,0.002,-0.002,0.000,-221558
4.678874917,846860857,3.305,-9.133,-0.578,0.002,-0.002,0.000,-221712
4.682037083,846864078,3.305,-9.133,-0.578,0.000,0.002,0.000,-221884
4.700687375,846870298,3.305,-9.133,-0.578,0.004,0.000,0.000,-221662
4.70078575,846876518,3.266,-9.133,-0.617,0.004,0.000,0.000,-222240
4.700858292,846881738,3.266,-9.133,-0.617,0.000,0.002,0.000,-221114
4.705023667,846886958,3.305,-9.176,-0.617,0.000,0.002,0.000,-221766
4.710226042,846892178,3.305,-9.176,-0.617,0.000,0.002,0.000,-222333
4.7163605,846898399,3.227,-9.215,-0.617,0.000,0.002,0.000,-222477
4.733944958,846902619,3.227,-9.215,-0.617,0.000,0.002,-0.002,-221212
4.734108667,846907840,3.266,-9.176,-0.539,0.000,0.002,-0.002,-222177
4.734195833,846913061,3.266,-9.176,-0.539,0.002,0.000,0.000,-222087
4.736339417,846918282,3.227,-9.098,-0.656,0.002,0.000,0.000,-221385
4.740547,846922502,3.227,-9.098,-0.656,0.000,0.000,-0.002,-221966
4.744768208,846926723,3.227,-9.098,-0.656,0.000,0.000,-0.002,-221735
4.749921417,846931944,3.227,-9.098,-0.656,0.000,-0.004,-0.004,-223168
4.767286917,846938164,3.266,-9.176,-0.617,0.000,-0.004,-0.004,-222512
4.767375958,846942385,3.266,-9.176,-0.617,0.000,0.000,-0.002,-222071
4.7674645,846946606,3.305,-9.176,-0.578,0.000,0.000,-0.002,-222506
4.769790042,846951827,3.305,-9.176,-0.578,-0.008,0.002,0.004,-222575
4.776038792,846958048,3.266,-9.176,-0.578,-0.008,0.002,0.004,-222675
4.781258958,846963269,3.266,-9.176,-0.578,-0.002,0.002,0.004,-222876
4.80039175,846968491,3.227,-9.176,-0.691,-0.002,0.002,0.004,-222159
4.800465667,846972711,3.227,-9.176,-0.691,0.000,0.002,0.000,-222808
4.800539417,846978931,3.227,-9.172,-0.617,0.000,0.002,0.000,-223011
4.801218333,846983151,3.227,-9.172,-0.617,-0.002,0.000,-0.002,-222700
4.806418583,846988372,3.266,-9.133,-0.500,-0.002,0.000,-0.002,-222815
4.810641333,846992593,3.266,-9.133,-0.500,-0.002,0.000,-0.002,-221694
4.817793375,846999814,3.305,-9.176,-0.539,-0.002,0.000,-0.002,-222561
4.833714292,847004035,3.305,-9.176,-0.539,0.000,0.000,0.000,-222740
4.83380275,847010255,3.227,-9.137,-0.656,0.000,0.000,0.000,-221948
4.834561167,847016475,3.227,-9.137,-0.656,0.000,0.000,0.002,-221329
4.839734625,847021695,3.227,-9.137,-0.656,-0.002,0.002,0.000,-222669
4.844956625,847026916,3.266,-9.176,-0.539,-0.002,0.002,0.000,-222427
4.850184125,847032137,3.266,-9.176,-0.539,0.000,0.000,-0.002,-222766
4.867081708,847039358,3.191,-9.211,-0.539,0.000,0.000,-0.002,-221780
4.867156708,847043579,3.191,-9.211,-0.539,0.000,0.000,0.000,-222294
4.867229667,847048799,3.227,-9.137,-0.617,0.000,0.000,0.000,-221179
4.871057417,847053019,3.227,-9.137,-0.617,0.000,-0.004,0.002,-221885
4.877324042,847059240,3.266,-9.176,-0.617,0.000,-0.004,0.002,-222548
4.882509583,847064461,3.266,-9.176,-0.617,0.002,-0.002,0.002,-222691
4.900394583,847069682,3.305,-9.176,-0.578,0.002,-0.002,0.002,-222007
4.900469042,847074903,3.305,-9.176,-0.578,0.000,0.000,-0.002,-222095
4.90115625,847083124,3.305,-9.176,-0.578,0.000,0.000,-0.004,-221212
4.905371417,847087345,3.266,-9.176,-0.578,0.000,0.000,-0.004,-222918
4.91061775,847092566,3.266,-9.176,-0.578,0.000,0.000,0.002,-222708
4.916751292,847098786,3.227,-9.172,-0.578,0.000,0.000,0.002,-222554
4.93371875,847103006,3.227,-9.172,-0.578,0.000,0.000,0.002,-221877
4.933793833,847108226,3.227,-9.137,-0.617,0.000,0.000,0.002,-222652
4.933867625,847112446,3.227,-9.137,-0.617,0.000,0.000,0.000,-222818
4.936712083,847118666,3.227,-9.098,-0.617,0.000,0.000,0.000,-222366
4.941868917,847123886,3.227,-9.098,-0.617,0.000,0.000,0.000,-221567
4.948154042,847130106,3.266,-9.176,-0.617,0.000,0.000,0.000,-221294
4.967056583,847137327,3.266,-9.176,-0.617,-0.002,0.000,-0.004,-222103
4.967131042,847142547,3.266,-9.176,-0.617,-0.004,0.000,0.000,-222971
4.967205,847147768,3.266,-9.133,-0.578,-0.004,0.000,0.000,-223315
4.970037375,847151989,3.266,-9.133,-0.578,0.002,0.000,0.002,-222252
4.976264917,847158210,3.266,-9.133,-0.656,0.002,0.000,0.002,-221679
4.980456042,847162415,3.266,-9.133,-0.656,0.000,0.002,0.002,-221679
4.985594,847167635,3.227,-9.137,-0.656,0.000,0.002,0.002,-222565
5.00043275,847171855,3.227,-9.137,-0.656,-0.002,0.000,0.002,-222694
5.00050675,847178076,3.305,-9.133,-0.617,-0.002,0.000,0.002,-222371
5.001366458,847183297,3.305,-9.133,-0.617,-0.002,-0.002,-0.004,-221576
5.007495708,847189518,3.266,-9.137,-0.465,-0.002,-0.002,-0.004,-221919
5.012787875,847194739,3.266,-9.137,-0.465,-0.002,-0.002,0.000,-222284
5.020928667,847202960,3.266,-9.176,-0.617,-0.002,-0.002,0.000,-221876
5.033748542,847206181,3.266,-9.176,-0.617,-0.002,-0.002,0.002,-222534
5.033821833,847212402,3.266,-9.176,-0.617,0.002,0.000,0.002,-222932
5.036651833,847218622,3.227,-9.172,-0.656,0.002,0.000,0.002,-222048
5.040892708,847222842,3.227,-9.172,-0.656,-0.004,0.002,0.000,-222472
5.046120542,847228063,3.266,-9.133,-0.578,-0.004,0.002,0.000,-223003
5.050247042,847232284,3.266,-9.133,-0.578,-0.002,0.000,-0.002,-222517
5.067098917,847239505,3.227,-9.172,-0.617,-0.002,0.000,-0.002,-222981
5.067170667,847244726,3.227,-9.172,-0.617,0.002,0.002,0.002,-222148
5.068990917,847250947,3.266,-9.133,-0.617,0.002,0.002,0.002,-221816
5.074120167,847256167,3.266,-9.133,-0.617,0.002,0.000,0.000,-221880
5.0803765,847262388,3.266,-9.133,-0.617,-0.002,0.002,0.000,-222529
5.100386042,847267609,3.227,-9.137,-0.617,-0.002,0.002,0.000,-221513
5.100462917,847271830,3.227,-9.137,-0.617,-0.004,0.002,0.000,-222605
5.100536917,847278051,3.266,-9.133,-0.578,-0.004,0.002,0.000,-221960
5.100610208,847282272,3.266,-9.133,-0.578,0.000,0.000,-0.002,-221968
5.105544417,847287493,3.227,-9.137,-0.539,0.000,0.000,-0.002,-221843
5.11072075,847292714,3.227,-9.137,-0.539,0.004,0.000,0.002,-222478
5.116987417,847298934,3.227,-9.137,-0.656,0.004,0.000,0.002,-222767
5.133751958,847304154,3.227,-9.137,-0.656,0.002,0.000,0.004,-222100
5.133823917,847310374,3.227,-9.137,-0.617,0.002,0.000,0.004,-223044
5.133897417,847315594,3.227,-9.137,-0.617,0.000,-0.002,0.002,-221490
5.140868292,847322815,3.227,-9.172,-0.578,0.000,-0.002,0.002,-222658
5.144081167,847326036,3.227,-9.172,-0.578,-0.004,0.002,0.000,-222493
5.150257417,847332257,3.227,-9.172,-0.578,-0.002,0.000,-0.002,-221610
5.167058208,847338478,3.305,-9.176,-0.656,-0.002,0.000,-0.002,-222286
5.1671325,847342699,3.305,-9.176,-0.656,0.000,0.000,0.000,-222438
5.167206917,847347919,3.227,-9.137,-0.617,0.000,0.000,0.000,-222529
5.170186458,847352139,3.227,-9.137,-0.617,0.002,0.000,0.002,-222310
5.177400083,847359359,3.227,-9.172,-0.617,0.002,0.000,0.002,-221977
5.182639333,847364580,3.227,-9.172,-0.617,-0.002,0.000,0.002,-222711
5.200392,847369801,3.266,-9.133,-0.578,-0.002,0.000,0.002,-221788
5.200479583,847374022,3.266,-9.133,-0.578,0.000,0.002,0.000,-222725
5.200567708,847382242,3.266,-9.133,-0.578,-0.002,0.000,0.002,-221916
5.204522333,847386463,3.266,-9.094,-0.539,-0.002,0.000,0.002,-222200
5.207730833,847389684,3.227,-9.172,-0.656,-0.002,0.000,0.002,-222012
5.214082917,847395905,3.227,-9.172,-0.656,-0.002,-0.002,0.002,-222234
5.232669958,847403126,3.227,-9.172,-0.656,0.000,0.000,0.006,-222008
5.233724833,847407346,3.266,-9.176,-0.617,0.000,0.000,0.006,-222796
5.2338195,847412567,3.266,-9.176,-0.617,0.000,0.000,0.000,-222364
5.23709825,847418787,3.227,-9.137,-0.617,0.000,0.000,0.000,-221642
5.24109925,847423007,3.227,-9.137,-0.617,-0.002,0.000,-0.002,-221404
5.246273,847428228,3.266,-9.133,-0.539,-0.002,0.000,-0.002,-222775
5.267070375,847432449,3.266,-9.133,-0.539,-0.002,0.002,-0.002,-223020
5.267145125,847438670,3.305,-9.133,-0.617,-0.002,0.002,-0.002,-222221
5.267216583,847442891,3.305,-9.133,-0.617,0.000,0.000,0.002,-222308
5.267289083,847448112,3.227,-9.172,-0.578,0.000,0.000,0.002,-221465
5.271371125,847453332,3.227,-9.172,-0.578,-0.002,0.002,0.000,-222162
5.2775455,847459553,3.227,-9.137,-0.578,-0.002,0.002,0.000,-222954
5.300400875,847463759,3.227,-9.137,-0.578,0.000,0.000,0.002,-222954
5.300475875,847468979,3.266,-9.133,-0.617,0.000,0.000,0.002,-222496
5.300552208,847474199,3.266,-9.133,-0.617,0.000,0.000,0.000,-222579
5.3006255,847482419,3.266,-9.133,-0.617,0.000,0.000,0.000,-222685
5.303674,847485639,3.266,-9.133,-0.617,0.000,0.002,0.000,-221689
5.3098855,847491859,3.266,-9.133,-0.617,0.000,0.002,-0.002,-222768
5.333735958,847499080,3.227,-9.137,-0.617,0.000,0.002,-0.002,-222809
5.333810958,847504301,3.227,-9.137,-0.617,0.002,0.002,0.000,-222553
5.333884167,847509523,3.266,-9.176,-0.656,0.002,0.002,0.000,-221605
5.333956958,847513743,3.266,-9.176,-0.656,0.002,0.002,0.002,-222386
5.338065708,847519963,3.266,-9.133,-0.617,0.002,0.002,0.002,-222366
5.343255792,847525183,3.266,-9.133,-0.617,0.000,0.002,0.000,-222506
5.349438917,847531403,3.266,-9.133,-0.539,0.000,0.002,0.000,-221984
5.367077917,847537623,3.266,-9.133,-0.539,-0.002,0.000,0.000,-222032
5.3671525,847543844,3.266,-9.133,-0.539,0.002,0.000,0.002,-222583
5.367225167,847549065,3.227,-9.133,-0.691,0.002,0.000,0.002,-222834
5.372392417,847554285,3.227,-9.133,-0.691,0.002,-0.002,0.000,-222004
5.379558417,847561506,3.227,-9.137,-0.578,0.002,-0.002,0.000,-222532
5.384797708,847566727,3.227,-9.137,-0.578,-0.002,0.004,-0.002,-222478
5.400488125,847570948,3.227,-9.172,-0.578,-0.002,0.004,-0.002,-221466
5.400572542,847576169,3.227,-9.172,-0.578,0.000,0.000,-0.002,-222186
5.4013805,847583390,3.227,-9.172,-0.578,0.000,0.000,0.000,-222359
5.406635792,847588610,3.266,-9.133,-0.578,0.000,0.000,0.000,-221729
5.411855958,847593830,3.266,-9.133,-0.578,0.004,0.000,0.000,-222230
5.433719917,847601050,3.227,-9.137,-0.617,0.004,0.000,0.000,-221958
5.433804875,847606270,3.227,-9.137,-0.617,0.002,0.002,0.002,-222537
5.433888875,847612490,3.227,-9.137,-0.617,-0.002,0.002,0.002,-222751
5.436752333,847618711,3.266,-9.133,-0.578,-0.002,0.002,0.002,-221720
5.441971125,847623932,3.266,-9.133,-0.578,0.000,-0.004,-0.002,-221719
5.467098208,847629153,3.266,-9.176,-0.500,0.000,-0.004,-0.002,-222344
5.467173333,847634373,3.266,-9.176,-0.500,-0.004,0.000,-0.002,-222354
5.467247292,847641594,3.266,-9.133,-0.617,-0.004,0.000,-0.002,-222592
5.468940333,847650815,3.266,-9.133,-0.617,0.000,-0.002,0.004,-222201
5.475012042,847657036,3.266,-9.133,-0.617,0.002,0.002,0.000,-222060
5.481291708,847663256,3.266,-9.133,-0.617,0.000,0.000,0.000,-222412
5.485554125,847667476,3.227,-9.172,-0.539,0.000,0.000,0.000,-221962
5.500411042,847672696,3.227,-9.172,-0.539,0.000,0.000,0.000,-221489
5.500485042,847677916,3.266,-9.176,-0.578,0.000,0.000,0.000,-223470
5.50055725,847681136,3.227,-9.172,-0.617,0.000,0.000,0.000,-222342
5.503400583,847685356,3.227,-9.172,-0.617,0.000,0.000,0.000,-222264
5.508557167,847690576,3.305,-9.176,-0.578,0.000,0.000,0.000,-222370
5.512792917,847694796,3.305,-9.176,-0.578,0.000,0.000,0.000,-223329
5.533783792,847702016,3.266,-9.133,-0.656,0.000,0.000,0.000,-222968
5.533859375,847706236,3.266,-9.133,-0.656,0.000,0.000,0.000,-222014
5.533931583,847711456,3.227,-9.172,-0.578,0.000,0.000,0.000,-222431
5.534759458,847716676,3.227,-9.172,-0.578,0.000,0.000,0.000,-221930
5.541848292,847723896,3.266,-9.176,-0.578,0.000,0.000,0.000,-221314
5.545156167,847727116,3.266,-9.176,-0.578,0.000,0.000,0.000,-221664
5.551288875,847733336,3.266,-9.176,-0.578,0.000,0.000,0.000,-223047
5.567075542,847739556,3.266,-9.176,-0.617,0.000,0.000,0.000,-222160
5.567162,847743776,3.266,-9.176,-0.617,0.000,0.000,0.000,-222505
5.567245292,847747996,3.266,-9.133,-0.617,0.000,0.000,0.000,-222243
5.570212958,847752216,3.266,-9.176,-0.578,0.000,0.000,0.000,-221976
5.575433958,847757436,3.266,-9.176,-0.578,0.000,0.000,0.000,-221259
5.582719333,847764656,3.266,-9.176,-0.578,0.000,0.000,0.000,-222451
5.600393458,847768876,3.227,-9.172,-0.500,0.000,0.000,0.000,-221669
5.600469542,847773096,3.227,-9.172,-0.500,0.000,0.000,0.000,-222446
5.600543208,847779302,3.227,-9.172,-0.617,0.000,0.000,0.000,-222446
5.601582208,847783522,3.227,-9.172,-0.617,0.000,0.000,0.000,-222144
5.606814833,847788742,3.305,-9.133,-0.617,0.000,0.000,0.000,-221418
5.612030333,847793962,3.305,-9.133,-0.617,0.000,0.000,0.000,-222813
5.633715667,847800182,3.266,-9.133,-0.617,0.000,0.000,0.000,-221854
5.633790125,847804402,3.266,-9.133,-0.617,0.000,0.000,0.000,-221754
5.633862708,847809622,3.266,-9.176,-0.578,0.000,0.000,0.000,-222777
5.633935167,847813842,3.266,-9.176,-0.578,0.000,0.000,0.000,-221752
5.63813725,847820062,3.266,-9.133,-0.617,0.000,0.000,0.000,-222407
5.642329917,847824282,3.266,-9.133,-0.617,0.000,0.000,0.000,-222045
5.647537917,847829502,3.227,-9.137,-0.617,0.000,0.000,0.000,-223864
5.667065167,847834722,3.227,-9.137,-0.617,0.000,0.000,0.000,-222259
5.667138458,847839942,3.266,-9.094,-0.656,0.000,0.000,0.000,-222196
5.667211333,847844162,3.266,-9.094,-0.656,0.000,0.000,0.000,-222033
5.667337792,847849382,3.266,-9.176,-0.617,0.000,0.000,0.000,-222159
5.67265925,847854602,3.266,-9.176,-0.617,0.000,0.000,0.000,-221641
5.678888417,847860822,3.266,-9.133,-0.539,0.000,0.000,0.000,-223173
5.683085292,847865042,3.266,-9.133,-0.539,0.000,0.000,0.000,-222292
5.700432208,847870263,3.227,-9.172,-0.578,0.000,0.000,0.000,-222536
5.700505792,847875483,3.227,-9.172,-0.578,0.000,0.000,0.000,-223082
5.700579125,847881703,3.227,-9.172,-0.617,0.000,0.000,0.000,-222293
5.704982042,847886923,3.227,-9.172,-0.617,0.000,0.000,0.000,-221849
5.714235292,847896143,3.266,-9.176,-0.617,0.000,0.000,0.000,-222605
5.717340833,847899363,3.266,-9.176,-0.617,0.000,0.000,0.000,-222024
5.733910875,847905583,3.266,-9.176,-0.617,0.000,0.000,0.000,-222112
5.733996125,847911803,3.266,-9.133,-0.578,0.000,0.000,0.000,-221955
5.734080458,847916024,3.266,-9.133,-0.578,0.000,0.000,0.000,-222575
5.740299917,847922244,3.266,-9.176,-0.539,0.000,0.000,0.000,-222607
5.744517542,847926464,3.266,-9.176,-0.539,0.000,0.000,0.000,-223015
5.749729958,847931684,3.227,-9.172,-0.578,0.000,0.000,0.000,-222920
5.767319,847936904,3.227,-9.172,-0.578,0.000,0.000,0.000,-221474
5.767407375,847942124,3.266,-9.094,-0.617,0.000,0.000,0.000,-223073
5.7674945,847946344,3.266,-9.094,-0.617,0.000,0.000,0.000,-222571
5.769579208,847951564,3.227,-9.137,-0.578,0.000,0.000,0.000,-222204
5.773825125,847955784,3.227,-9.137,-0.578,0.000,0.000,0.000,-221675
5.780052708,847962004,3.227,-9.137,-0.617,0.000,0.000,0.000,-222121
5.78429725,847966224,3.227,-9.137,-0.617,0.000,0.000,0.000,-222345
5.800378417,847971444,3.266,-9.176,-0.539,0.000,0.000,0.000,-222351
5.800467,847976664,3.266,-9.176,-0.539,0.000,0.000,0.000,-222618
5.800553375,847981884,3.227,-9.137,-0.656,0.000,0.000,0.000,-222106
5.804159958,847986104,3.227,-9.137,-0.656,0.000,0.000,0.000,-222130
5.809373708,847991324,3.266,-9.133,-0.656,0.000,0.000,0.000,-222514
5.813592083,847995544,3.266,-9.133,-0.656,0.000,0.000,0.000,-222987
5.833720375,848001764,3.227,-9.098,-0.578,0.000,0.000,0.000,-222085
5.833807583,848006984,3.227,-9.098,-0.578,0.000,0.000,0.000,-222035
5.833894958,848012204,3.266,-9.211,-0.578,0.000,0.000,0.000,-222604
5.834377917,848016424,3.266,-9.211,-0.578,0.000,0.000,0.000,-222267
5.840702042,848022644,3.227,-9.172,-0.617,0.000,0.000,0.000,-222318
5.845916208,848027864,3.227,-9.172,-0.617,0.000,0.000,0.000,-223174
5.851141792,848033084,3.266,-9.176,-0.656,0.000,0.000,0.000,-222359
5.86703025,848037304,3.266,-9.176,-0.656,0.000,0.000,0.000,-220979
5.867104125,848044524,3.266,-9.133,-0.617,0.000,0.000,0.000,-222434
5.867730083,848049744,3.266,-9.133,-0.617,0.000,0.000,0.000,-222748
5.873039125,848054964,3.266,-9.176,-0.578,0.000,0.000,0.000,-221661
5.878248417,848060184,3.266,-9.176,-0.578,0.000,0.000,0.000,-222562
5.8843985,848066404,3.266,-9.176,-0.578,0.000,0.000,0.000,-222194
5.900373167,848070624,3.266,-9.133,-0.617,0.000,0.000,0.000,-221605
5.900462958,848075844,3.266,-9.133,-0.617,0.000,0.000,0.000,-221643
5.900552125,848081064,3.266,-9.133,-0.617,0.000,0.000,0.000,-222477
5.903262917,848085284,3.266,-9.133,-0.617,0.000,0.000,0.000,-222051
5.907542833,848089504,3.266,-9.133,-0.617,0.000,0.000,0.000,-221565
5.911788333,848093724,3.266,-9.176,-0.500,0.000,0.000,0.000,-222688
5.917195542,848098944,3.266,-9.176,-0.500,0.000,0.000,0.000,-222040
5.933735167,848105164,3.266,-9.176,-0.539,0.000,0.000,0.000,-222349
5.933808917,848110384,3.266,-9.176,-0.539,0.000,0.000,0.000,-222595
5.933881625,848115604,3.227,-9.172,-0.617,0.000,0.000,0.000,-222034
5.938867417,848120824,3.227,-9.172,-0.617,0.000,0.000,0.000,-221008
5.946107417,848128044,3.227,-9.172,-0.617,0.000,0.000,0.000,-222292
5.950302333,848132264,3.227,-9.137,-0.617,0.000,0.000,0.000,-222396
5.967200125,848137487,3.227,-9.137,-0.617,0.000,0.000,0.000,-221529
5.967290208,848143707,3.227,-9.137,-0.578,0.000,0.000,0.000,-223155
5.968055875,848149927,3.227,-9.137,-0.578,0.000,0.000,0.000,-222356
5.972207708,848154147,3.227,-9.137,-0.539,0.000,0.000,0.000,-222005
5.976425125,848158367,3.227,-9.137,-0.539,0.000,0.000,0.000,-222553
5.982634417,848164588,3.266,-9.133,-0.578,0.000,0.000,0.000,-223340
6.000656167,848169808,3.266,-9.133,-0.578,0.000,0.000,0.000,-222761
6.000747125,848175028,3.305,-9.176,-0.578,0.000,0.000,0.000,-221971
6.000837333,848180248,3.305,-9.176,-0.578,0.000,0.000,0.000,-222184
6.005547917,848187468,3.266,-9.176,-0.578,0.000,0.000,0.000,-222294
6.010766708,848192688,3.266,-9.176,-0.578,0.000,0.000,0.000,-222569
6.015961792,848197908,3.266,-9.176,-0.578,0.000,0.000,0.000,-222713
6.033988083,848204128,3.305,-9.176,-0.539,0.000,0.000,0.000,-222124
6.0340855,848208348,3.305,-9.176,-0.539,0.000,0.000,0.000,-222676
6.034176083,848213568,3.227,-9.172,-0.578,0.000,0.000,0.000,-222226
6.036874583,848218788,3.227,-9.172,-0.578,0.000,0.000,0.000,-221684
6.044115083,848226008,3.266,-9.211,-0.656,0.000,0.000,0.000,-222994
6.048283667,848230228,3.266,-9.211,-0.656,0.000,0.000,0.000,-222612
6.067053375,848235448,3.227,-9.137,-0.617,0.000,0.000,0.000,-221538
6.067141125,848239668,3.227,-9.137,-0.617,0.000,0.000,0.000,-222575
6.067228125,848245888,3.266,-9.133,-0.578,0.000,0.000,0.000,-222794
6.068335292,848250093,3.266,-9.133,-0.578,0.000,0.000,0.000,-222794
6.073383458,848255313,3.266,-9.176,-0.578,0.000,0.000,0.000,-221466
6.077584792,848259533,3.266,-9.176,-0.578,0.000,0.000,0.000,-222238
6.083771875,848265753,3.227,-9.137,-0.578,0.000,0.000,0.000,-222441
6.100372375,848270973,3.227,-9.137,-0.578,0.000,0.000,0.000,-221965
6.1004475,848276193,3.227,-9.137,-0.656,0.000,0.000,0.000,-222240
6.100520917,848280413,3.227,-9.137,-0.656,0.000,0.000,0.000,-222137
6.104655458,848286619,3.227,-9.137,-0.617,0.000,0.000,0.000,-222137
6.108902833,848290839,3.227,-9.137,-0.617,0.000,0.000,0.000,-222258
6.114128958,848296059,3.266,-9.176,-0.539,0.000,0.000,0.000,-222687
6.133721125,848302279,3.266,-9.176,-0.539,0.000,0.000,0.000,-221580
6.133810125,848308499,3.266,-9.176,-0.539,0.000,0.000,0.000,-221883
6.133897875,848312719,3.266,-9.176,-0.617,0.000,0.000,0.000,-223495
6.136009375,848317940,3.266,-9.176,-0.617,0.000,0.000,0.000,-222474
6.142208125,848324160,3.266,-9.133,-0.617,0.000,0.000,0.000,-221479
6.146424167,848328380,3.266,-9.133,-0.617,0.000,0.000,0.000,-222459
6.151665417,848333600,3.227,-9.098,-0.617,0.000,0.000,0.000,-221954
6.167048958,848337820,3.227,-9.098,-0.617,0.000,0.000,0.000,-222181
6.167121417,848344040,3.266,-9.133,-0.617,0.000,0.000,0.000,-222278
6.167193958,848348260,3.266,-9.133,-0.617,0.000,0.000,0.000,-222762
6.171544542,848353480,3.266,-9.133,-0.500,0.000,0.000,0.000,-221908
6.1767555,848358700,3.266,-9.133,-0.500,0.000,0.000,0.000,-221891
6.182975542,848364921,3.266,-9.133,-0.617,0.000,0.000,0.000,-222287
6.200438083,848370141,3.266,-9.133,-0.617,0.000,0.000,0.000,-222100
6.200514917,848375361,3.227,-9.137,-0.578,0.000,0.000,0.000,-222472
6.200588667,848379581,3.227,-9.137,-0.578,0.000,0.000,0.000,-223330
6.203857292,848385801,3.266,-9.133,-0.617,0.000,0.000,0.000,-222315
6.2091075,848391021,3.266,-9.133,-0.617,0.000,0.000,0.000,-222469
6.215290125,848397241,3.227,-9.172,-0.539,0.000,0.000,0.000,-222030
6.233911333,848406461,3.227,-9.172,-0.539,0.000,0.000,0.000,-221759
6.23400375,848411681,3.227,-9.172,-0.539,0.000,0.000,0.000,-222396
6.234959333,848416901,3.266,-9.133,-0.617,0.000,0.000,0.000,-222553
6.23916325,848421121,3.266,-9.133,-0.617,0.000,0.000,0.000,-221813
6.245375875,848427341,3.227,-9.133,-0.691,0.000,0.000,0.000,-222724
6.24962625,848431561,3.227,-9.133,-0.691,0.000,0.000,0.000,-222474
6.267264208,848436781,3.266,-9.133,-0.617,0.000,0.000,0.000,-221713
6.267460083,848442001,3.266,-9.133,-0.617,0.000,0.000,0.000,-222009
6.268211417,848450221,3.266,-9.133,-0.617,0.000,0.000,0.000,-222352
6.272524167,848454441,3.227,-9.172,-0.578,0.000,0.000,0.000,-221422
6.27771475,848459664,3.227,-9.172,-0.578,0.000,0.000,0.000,-222226
6.283880833,848465884,3.227,-9.137,-0.656,0.000,0.000,0.000,-222199
6.300389417,848471104,3.227,-9.137,-0.656,0.000,0.000,0.000,-222457
6.30046275,848476324,3.305,-9.176,-0.578,0.000,0.000,0.000,-222857
6.300535,848480544,3.305,-9.176,-0.578,0.000,0.000,0.000,-222757
6.304826458,848486764,3.266,-9.133,-0.539,0.000,0.000,0.000,-222947
6.309042292,848490984,3.266,-9.133,-0.539,0.000,0.000,0.000,-221460
6.314263542,848496204,3.266,-9.133,-0.539,0.000,0.000,0.000,-222476
6.333715875,848501424,3.266,-9.133,-0.539,0.000,0.000,0.000,-221890
6.333806833,848507644,3.227,-9.172,-0.617,0.000,0.000,0.000,-221969
6.333895667,848511864,3.227,-9.172,-0.617,0.000,0.000,0.000,-221783
6.335238667,848517084,3.191,-9.137,-0.691,0.000,0.000,0.000,-222863
6.34129375,848523305,3.191,-9.137,-0.691,0.000,0.000,0.000,-223075
6.346755083,848528525,3.191,-9.137,-0.691,0.000,0.000,0.000,-222025
6.351756917,848533745,3.266,-9.176,-0.539,0.000,0.000,0.000,-222081
6.367070333,848537965,3.266,-9.176,-0.539,0.000,0.000,0.000,-222249
6.367147083,848544185,3.305,-9.133,-0.500,0.000,0.000,0.000,-222735
6.367223042,848548390,3.266,-9.133,-0.617,0.000,0.000,0.000,-222735
6.370669542,848552610,3.266,-9.133,-0.617,0.000,0.000,0.000,-221796
6.375825333,848557830,3.266,-9.133,-0.617,0.000,0.000,0.000,-222298
6.381108583,848563050,3.266,-9.133,-0.617,0.000,0.000,0.000,-222652
6.400389417,848570270,3.227,-9.137,-0.617,0.000,0.000,0.000,-220755
6.400480583,848572490,3.227,-9.137,-0.617,0.000,0.000,0.000,-223274
6.400571458,848577710,3.266,-9.176,-0.500,0.000,0.000,0.000,-223149
6.400661708,848581930,3.266,-9.176,-0.500,0.000,0.000,0.000,-222607
6.407222125,848589150,3.266,-9.176,-0.578,0.000,0.000,0.000,-221951
6.412426375,848594370,3.266,-9.176,-0.578,0.000,0.000,0.000,-222404
6.417664542,848599592,3.266,-9.133,-0.656,0.000,0.000,0.000,-222326
6.420893083,848602813,3.266,-9.133,-0.656,0.000,0.000,0.000,-222348
6.433719625,848609034,3.266,-9.133,-0.578,0.000,0.000,0.000,-222504
6.433794208,848613254,3.266,-9.133,-0.578,0.000,0.000,0.000,-222594
6.436536708,848618474,3.266,-9.133,-0.578,0.000,0.000,0.000,-222151
6.442696125,848624694,3.266,-9.133,-0.578,0.000,0.000,0.000,-221898
6.448919542,848630914,3.266,-9.133,-0.578,0.000,0.000,0.000,-222857
6.467109917,848637134,3.227,-9.137,-0.578,0.000,0.000,0.000,-222137
6.467183792,848643354,3.227,-9.137,-0.578,0.000,0.000,0.000,-222064
6.467557375,848649574,3.266,-9.176,-0.617,0.000,0.000,0.000,-222430
6.474795,848656794,3.266,-9.176,-0.617,0.000,0.000,0.000,-222229
6.480082958,848662014,3.266,-9.176,-0.617,0.000,0.000,0.000,-222795
6.486209458,848668234,3.266,-9.172,-0.691,0.000,0.000,0.000,-222435
6.500535875,848672454,3.266,-9.172,-0.691,0.000,0.000,0.000,-222365
6.500646708,848677674,3.305,-9.176,-0.578,0.000,0.000,0.000,-222565
6.500736083,848681894,3.305,-9.176,-0.578,0.000,0.000,0.000,-222037
6.506186167,848688115,3.305,-9.176,-0.539,0.000,0.000,0.000,-221955
6.511413333,848693335,3.305,-9.176,-0.539,0.000,0.000,0.000,-221808
6.5175645,848699555,3.266,-9.133,-0.578,0.000,0.000,0.000,-222785
6.533899208,848701775,3.266,-9.133,-0.578,0.000,0.000,0.000,-222354
6.533989458,848707995,3.266,-9.133,-0.656,0.000,0.000,0.000,-222908
6.534087292,848713215,3.266,-9.133,-0.656,0.000,0.000,0.000,-222253
6.537519958,848719435,3.266,-9.176,-0.656,0.000,0.000,0.000,-222510
6.542718833,848724655,3.266,-9.176,-0.656,0.000,0.000,0.000,-221766
6.548936833,848730875,3.266,-9.176,-0.656,0.000,0.000,0.000,-222683
6.553176167,848735080,3.266,-9.133,-0.539,0.000,0.000,0.000,-222683
6.567092875,848740302,3.266,-9.133,-0.539,0.000,0.000,0.000,-221974
6.567166292,848746522,3.266,-9.133,-0.539,0.000,0.000,0.000,-223089
6.5688005,848750742,3.266,-9.133,-0.539,0.000,0.000,0.000,-222113
6.57401725,848755962,3.227,-9.172,-0.656,0.000,0.000,0.000,-221999
6.57928325,848761182,3.227,-9.172,-0.656,0.000,0.000,0.000,-221936
6.58538125,848767402,3.266,-9.176,-0.617,0.000,0.000,0.000,-221662
6.600382583,848771607,3.266,-9.176,-0.617,0.000,0.000,0.000,-221662
6.60047075,848776827,3.266,-9.211,-0.539,0.000,0.000,0.000,-222634
6.600558583,848782047,3.266,-9.211,-0.539,0.000,0.000,0.000,-223524
6.606317917,848788267,3.227,-9.137,-0.500,0.000,0.000,0.000,-222295
6.611551917,848793488,3.227,-9.137,-0.500,0.000,0.000,0.000,-223056
6.616829375,848798708,3.266,-9.133,-0.578,0.000,0.000,0.000,-222830
6.633716375,848803929,3.266,-9.133,-0.578,0.000,0.000,0.000,-222121
6.633789708,848811149,3.266,-9.133,-0.578,0.000,0.000,0.000,-222160
6.633871708,848815369,3.266,-9.133,-0.656,0.000,0.000,0.000,-222475
6.637624375,848819589,3.266,-9.133,-0.656,0.000,0.000,0.000,-222512
6.643878542,848825809,3.305,-9.176,-0.578,0.000,0.000,0.000,-222524
6.648081042,848830029,3.305,-9.176,-0.578,0.000,0.000,0.000,-222816
6.667040125,848835249,3.266,-9.176,-0.539,0.000,0.000,0.000,-221759
6.66712925,848840469,3.266,-9.176,-0.539,0.000,0.000,0.000,-221801
6.667217833,848845674,3.266,-9.133,-0.656,0.000,0.000,0.000,-221801
6.668896458,848850894,3.266,-9.133,-0.656,0.000,0.000,0.000,-222071
6.674177167,848856114,3.266,-9.176,-0.617,0.000,0.000,0.000,-222780
6.679396625,848861334,3.266,-9.176,-0.617,0.000,0.000,0.000,-221916
6.686536333,848868554,3.266,-9.176,-0.617,0.000,0.000,0.000,-221313
6.700399333,848872774,3.266,-9.176,-0.617,0.000,0.000,0.000,-222146
6.700472625,848876994,3.266,-9.133,-0.578,0.000,0.000,0.000,-222807
6.700545042,848882199,3.266,-9.133,-0.578,0.000,0.000,0.000,-222807
6.707492375,848889419,3.266,-9.211,-0.578,0.000,0.000,0.000,-221728
6.712708542,848894639,3.266,-9.211,-0.578,0.000,0.000,0.000,-222455
6.716928333,848898859,3.266,-9.133,-0.656,0.000,0.000,0.000,-222094
6.733857958,848906079,3.266,-9.133,-0.656,0.000,0.000,0.000,-221999
6.733950833,848911301,3.266,-9.133,-0.656,0.000,0.000,0.000,-222347
6.735585458,848917521,3.266,-9.133,-0.617,0.000,0.000,0.000,-222582
6.739838292,848921741,3.266,-9.133,-0.617,0.000,0.000,0.000,-222723
6.746046875,848927961,3.227,-9.137,-0.539,0.000,0.000,0.000,-222397
6.750191458,848932181,3.227,-9.137,-0.539,0.000,0.000,0.000,-222244
6.767317667,848937401,3.227,-9.172,-0.617,0.000,0.000,0.000,-222423
6.767410375,848942621,3.227,-9.172,-0.617,0.000,0.000,0.000,-223946
6.767500458,848947842,3.227,-9.137,-0.656,0.000,0.000,0.000,-222475
6.770164583,848952062,3.227,-9.137,-0.656,0.000,0.000,0.000,-222539
6.775276792,848957282,3.191,-9.133,-0.578,0.000,0.000,0.000,-222195
6.78060225,848962504,3.191,-9.133,-0.578,0.000,0.000,0.000,-223586
6.80061675,848968725,3.266,-9.133,-0.539,0.000,0.000,0.000,-222646
6.800710083,848972945,3.266,-9.133,-0.539,0.000,0.000,0.000,-222529
6.80080125,848978165,3.305,-9.133,-0.539,0.000,0.000,0.000,-221938
6.801391042,848983385,3.305,-9.133,-0.539,0.000,0.000,0.000,-222277
6.807697208,848989605,3.227,-9.172,-0.578,0.000,0.000,0.000,-222790
6.811923208,848993810,3.227,-9.172,-0.578,0.000,0.000,0.000,-222790
6.817120708,848999030,3.266,-9.133,-0.578,0.000,0.000,0.000,-222135
6.833726375,849003250,3.266,-9.133,-0.578,0.000,0.000,0.000,-221284
6.833812542,849009471,3.227,-9.172,-0.617,0.000,0.000,0.000,-222850
6.833888167,849014691,3.227,-9.172,-0.617,0.000,0.000,0.000,-222440
6.837916708,849019912,3.227,-9.172,-0.539,0.000,0.000,0.000,-222811
6.844137958,849026132,3.227,-9.172,-0.539,0.000,0.000,0.000,-222897
6.86704375,849032352,3.227,-9.172,-0.539,0.000,0.000,0.000,-222332
6.867119708,849038573,3.266,-9.176,-0.617,0.000,0.000,0.000,-221937
6.867192958,849043793,3.266,-9.176,-0.617,0.000,0.000,0.000,-222717
6.868107125,849050013,3.227,-9.137,-0.656,0.000,0.000,0.000,-222795
6.873337917,849055233,3.227,-9.137,-0.656,0.000,0.000,0.000,-221829
6.878520833,849060453,3.227,-9.137,-0.578,0.000,0.000,0.000,-221948
6.883744542,849065673,3.227,-9.137,-0.578,0.000,0.000,0.000,-222171
6.900384875,849071893,3.227,-9.137,-0.578,0.000,0.000,0.000,-221750
6.900468583,849076113,3.266,-9.133,-0.617,0.000,0.000,0.000,-221370
6.900551458,849081333,3.266,-9.133,-0.617,0.000,0.000,0.000,-222586
6.905586583,849087553,3.305,-9.133,-0.578,0.000,0.000,0.000,-221598
6.910873083,849092773,3.305,-9.133,-0.578,0.000,0.000,0.000,-222687
6.91713375,849098993,3.227,-9.137,-0.578,0.000,0.000,0.000,-223245
6.933726417,849103213,3.227,-9.137,-0.578,0.000,0.000,0.000,-222050
6.933810167,849109433,3.266,-9.133,-0.617,0.000,0.000,0.000,-222482
6.933892917,849114653,3.266,-9.133,-0.617,0.000,0.000,0.000,-222142
6.939031333,849120873,3.227,-9.137,-0.578,0.000,0.000,0.000,-221585
6.942164167,849124093,3.227,-9.137,-0.578,0.000,0.000,0.000,-221880
6.948385958,849130313,3.227,-9.137,-0.578,0.000,0.000,0.000,-222478
6.967039833,849135533,3.227,-9.137,-0.578,0.000,0.000,0.000,-221766
6.967113083,849142753,3.266,-9.176,-0.617,0.000,0.000,0.000,-222699
6.967186083,849144973,3.266,-9.176,-0.617,0.000,0.000,0.000,-221977
6.972300208,849154193,3.266,-9.176,-0.617,0.000,0.000,0.000,-222493
6.978494542,849160413,3.227,-9.172,-0.578,0.000,0.000,0.000,-223219
6.983616708,849165633,3.227,-9.172,-0.578,0.000,0.000,0.000,-223313
7.000383667,849172854,3.227,-9.172,-0.578,0.000,0.000,0.000,-221868
7.000458958,849177074,3.227,-9.137,-0.578,0.000,0.000,0.000,-222115
7.000532042,849182296,3.227,-9.137,-0.578,0.000,0.000,0.000,-222699
7.006617333,849188516,3.266,-9.094,-0.656,0.000,0.000,0.000,-221552
7.0118005,849193736,3.266,-9.094,-0.656,0.000,0.000,0.000,-222342
7.017951792,849199956,3.227,-9.137,-0.656,0.000,0.000,0.000,-222473
7.033726417,849205176,3.227,-9.137,-0.656,0.000,0.000,0.000,-222159
7.033815417,849211396,3.227,-9.137,-0.656,0.000,0.000,0.000,-222437
7.035747083,849217616,3.266,-9.133,-0.500,0.000,0.000,0.000,-221832
7.040858833,849222836,3.266,-9.133,-0.500,0.000,0.000,0.000,-221916
7.047345083,849229056,3.266,-9.094,-0.578,0.000,0.000,0.000,-223077
7.051267,849233261,3.266,-9.094,-0.578,0.000,0.000,0.000,-223077
7.067062542,849238481,3.227,-9.137,-0.617,0.000,0.000,0.000,-221803
7.06713675,849243701,3.227,-9.137,-0.617,0.000,0.000,0.000,-222446
7.067967667,849249921,3.266,-9.133,-0.617,0.000,0.000,0.000,-222154
7.072199458,849254141,3.266,-9.133,-0.617,0.000,0.000,0.000,-222363
7.077435667,849259361,3.227,-9.172,-0.617,0.000,0.000,0.000,-222530
7.08262525,849264581,3.227,-9.172,-0.617,0.000,0.000,0.000,-222087
7.100383917,849270801,3.266,-9.133,-0.617,0.000,0.000,0.000,-221922
7.100478208,849276021,3.266,-9.133,-0.617,-0.002,-0.004,-0.002,-222291
7.100573875,849282242,3.266,-9.133,-0.656,-0.002,-0.004,-0.002,-222827
7.103573542,849285463,3.266,-9.133,-0.656,-0.002,0.000,0.002,-222283
7.110782333,849292684,3.266,-9.133,-0.656,0.002,0.002,0.002,-221742
7.114982542,849296905,3.305,-9.176,-0.617,0.002,0.002,0.002,-222630
7.13373625,849301125,3.266,-9.133,-0.617,0.002,0.002,0.002,-222009
7.133811667,849306347,3.266,-9.133,-0.617,-0.002,0.004,0.000,-221802
7.133885875,849313568,3.266,-9.133,-0.539,-0.002,0.004,0.000,-222866
7.1348575,849316789,3.266,-9.133,-0.539,0.000,0.002,0.000,-222280
7.141139333,849323009,3.266,-9.133,-0.539,0.002,0.004,0.000,-222734
7.147309583,849329229,3.266,-9.137,-0.691,0.002,0.004,0.000,-221823
7.167103333,849333449,3.266,-9.137,-0.691,0.002,0.000,0.002,-222070
7.167177125,849338670,3.227,-9.098,-0.656,0.002,0.000,0.002,-222730
7.167252,849342891,3.227,-9.098,-0.656,0.000,-0.002,0.000,-221543
7.167325833,849349112,3.266,-9.133,-0.539,0.000,-0.002,0.000,-222424
7.171459625,849353333,3.266,-9.133,-0.539,0.004,0.002,0.006,-221580
7.176696667,849358554,3.227,-9.137,-0.578,0.004,0.002,0.006,-222138
7.181901792,849363774,3.227,-9.137,-0.578,0.000,0.000,0.000,-223080
7.200515125,849369994,3.266,-9.133,-0.578,0.000,0.000,0.000,-222399
7.200591958,849374214,3.266,-9.133,-0.578,0.004,-0.002,0.002,-222196
7.200667875,849379435,3.266,-9.176,-0.617,0.004,-0.002,0.002,-222753
7.202811,849384656,3.266,-9.176,-0.617,0.006,0.002,0.002,-222313
7.210087292,849391876,3.305,-9.176,-0.656,0.006,0.002,0.002,-221903
7.214179583,849396096,3.305,-9.176,-0.656,0.000,0.000,0.004,-223160
7.219296292,849401316,3.266,-9.133,-0.578,0.000,0.000,0.004,-221633
7.23391725,849406536,3.266,-9.133,-0.578,-0.004,0.000,-0.002,-222685
7.234010167,849412757,3.266,-9.176,-0.578,-0.004,0.000,-0.002,-222881
7.235997792,849417978,3.266,-9.176,-0.578,0.000,0.000,-0.002,-222484
7.24033175,849422199,3.266,-9.176,-0.617,0.000,0.000,-0.002,-222237
7.245534667,849427420,3.266,-9.176,-0.617,0.004,0.002,0.002,-222950
7.267050833,849434641,3.266,-9.176,-0.617,-0.002,0.004,0.000,-223003
7.267140333,849438862,3.227,-9.137,-0.656,-0.002,0.004,0.000,-221478
7.267229417,849443083,3.266,-9.176,-0.617,-0.002,0.004,0.000,-222436
7.267326417,849448304,3.266,-9.176,-0.617,-0.002,0.002,-0.002,-223038
7.27260175,849454525,3.266,-9.176,-0.578,-0.002,0.002,-0.002,-221877
7.277762625,849459746,3.266,-9.176,-0.578,-0.004,-0.004,-0.002,-222022
7.282951375,849464967,3.266,-9.176,-0.578,0.002,-0.004,0.000,-221876
7.300385625,849470188,3.266,-9.176,-0.617,0.002,-0.004,0.000,-221569
7.300459958,849475409,3.266,-9.176,-0.617,0.002,-0.004,0.000,-222300
7.3005345,849480630,3.266,-9.133,-0.617,0.002,-0.004,0.000,-222391
7.303985542,849485851,3.266,-9.133,-0.617,0.000,0.000,0.002,-222513
7.310147958,849492071,3.266,-9.176,-0.617,0.000,0.000,0.002,-222122
7.31446775,849496293,3.266,-9.176,-0.617,0.002,0.002,0.000,-223028
7.319508333,849501513,3.227,-9.172,-0.539,0.002,0.002,0.000,-223099
7.333736083,849506733,3.227,-9.172,-0.539,0.000,0.002,0.000,-221783
7.333809583,849512953,3.266,-9.133,-0.617,0.000,0.002,0.000,-223029
7.336258417,849518173,3.266,-9.133,-0.617,0.000,0.000,0.000,-222029
7.340463458,849522393,3.266,-9.176,-0.539,0.000,0.000,0.000,-221296
7.344672208,849526613,3.266,-9.176,-0.539,0.000,0.000,0.000,-222383
7.350890167,849532833,3.266,-9.094,-0.617,0.000,0.000,0.000,-222281
7.367086167,849538053,3.266,-9.094,-0.617,0.004,-0.002,0.000,-221711
7.367162625,849543274,3.227,-9.137,-0.617,0.004,-0.002,0.000,-222609
7.367237375,849548496,3.227,-9.137,-0.617,-0.002,0.002,0.000,-222840
7.372840292,849554717,3.227,-9.172,-0.578,-0.002,0.002,0.000,-222189
7.377922708,849559938,3.227,-9.172,-0.578,-0.002,0.000,0.000,-222555
7.400368875,849565159,3.227,-9.172,-0.578,0.000,-0.002,-0.002,-221965
7.400445167,849570380,3.266,-9.176,-0.617,0.000,-0.002,-0.002,-222374
7.400518625,849575601,3.266,-9.176,-0.617,0.000,0.002,0.000,-221927
7.400596792,849580821,3.227,-9.172,-0.617,0.000,0.002,0.000,-222387
7.403114917,849585041,3.227,-9.172,-0.617,0.002,0.002,0.000,-221044
7.409344833,849591261,3.266,-9.133,-0.617,0.002,0.002,0.000,-221734
7.414489708,849596482,3.266,-9.133,-0.617,0.000,0.000,-0.002,-222754
7.433785333,849602703,3.266,-9.176,-0.539,0.000,0.000,-0.002,-221569
7.433869958,849607924,3.266,-9.176,-0.539,-0.004,-0.002,0.000,-222594
7.433944208,849614145,3.266,-9.176,-0.539,0.004,-0.002,0.002,-222173
7.437461083,849619366,3.266,-9.133,-0.656,0.004,-0.002,0.002,-221877
7.442693417,849624587,3.266,-9.133,-0.656,0.002,0.000,0.002,-221097
7.448907625,849630807,3.227,-9.137,-0.578,0.002,0.000,0.002,-222295
7.467053833,849636027,3.227,-9.137,-0.578,-0.002,0.002,-0.002,-221720
7.4671525,849641248,3.305,-9.133,-0.578,-0.002,0.002,-0.002,-222267
7.4672445,849645469,3.305,-9.133,-0.578,-0.002,0.002,-0.002,-221557
7.470833375,849652690,3.266,-9.094,-0.617,-0.002,0.002,-0.002,-222013
7.475999125,849657911,3.266,-9.094,-0.617,0.004,0.000,0.000,-222336
7.482233375,849664131,3.227,-9.172,-0.539,0.004,0.000,0.000,-222355
7.500385125,849670351,3.227,-9.172,-0.539,0.004,-0.002,0.002,-221987
7.500472875,849675572,3.227,-9.172,-0.539,0.000,0.002,0.002,-221892
7.500558208,849681793,3.266,-9.133,-0.617,0.000,0.002,0.002,-222815
7.506062917,849688013,3.266,-9.133,-0.617,-0.002,0.000,0.000,-222207
7.513290167,849695234,3.266,-9.133,-0.578,-0.002,0.000,0.000,-222915
7.516491958,849698455,3.266,-9.133,-0.578,0.000,-0.002,0.000,-223030
7.533716458,849703676,3.227,-9.137,-0.578,0.000,-0.002,0.000,-221925
7.5337915,849708897,3.227,-9.137,-0.578,0.002,0.000,-0.002,-222632
7.534082917,849716118,3.227,-9.137,-0.578,0.000,0.000,0.000,-222172
7.538333542,849720338,3.266,-9.176,-0.617,0.000,0.000,0.000,-221873
7.542633583,849724558,3.266,-9.176,-0.617,0.002,-0.002,0.002,-221590
7.550778042,849732779,3.266,-9.133,-0.656,0.002,-0.002,0.002,-222079
7.567079667,849738000,3.266,-9.133,-0.656,0.002,0.000,0.002,-222636
7.567154,849743220,3.266,-9.133,-0.617,0.002,0.000,0.002,-222085
7.567228333,849748440,3.266,-9.133,-0.617,0.000,0.000,-0.002,-222105
7.572746792,849754661,3.191,-9.133,-0.578,0.000,0.000,-0.002,-222919
7.576961542,849758884,3.191,-9.133,-0.578,0.000,0.002,-0.004,-222666
7.582175083,849764105,3.266,-9.133,-0.656,0.000,0.002,-0.004,-223174
7.600542833,849771326,3.266,-9.133,-0.656,0.002,0.002,0.000,-222378
7.600631333,849777546,3.266,-9.133,-0.656,0.002,0.004,0.000,-222743
7.60183,849783766,3.266,-9.176,-0.578,0.002,0.004,0.000,-222604
7.607054208,849788986,3.266,-9.176,-0.578,0.002,0.002,0.000,-221654
7.614214042,849796206,3.266,-9.176,-0.578,-0.002,-0.002,-0.002,-222825
7.617444667,849799427,3.227,-9.137,-0.539,-0.002,-0.002,-0.002,-223157
7.621642125,849803648,3.266,-9.094,-0.539,-0.002,-0.002,-0.002,-221550
7.633812708,849808869,3.266,-9.094,-0.539,0.000,-0.002,0.000,-222347
7.633904292,849815089,3.227,-9.137,-0.578,0.000,-0.002,0.000,-222522
7.637310958,849819310,3.227,-9.137,-0.578,0.002,0.000,0.002,-222601
7.643613958,849825530,3.266,-9.094,-0.656,0.002,0.000,0.002,-221643
7.6487355,849830750,3.266,-9.094,-0.656,0.002,0.000,0.002,-221969
7.667090208,849836970,3.266,-9.094,-0.656,-0.002,0.002,-0.002,-221997
7.667166667,849843191,3.227,-9.137,-0.578,-0.002,0.002,-0.002,-221955
7.667241667,849848412,3.227,-9.137,-0.578,-0.002,0.002,-0.002,-221867
7.672715042,849854633,3.305,-9.176,-0.578,-0.002,0.002,-0.002,-222114
7.676945208,849858854,3.305,-9.176,-0.578,0.000,0.002,-0.002,-222409
7.682164542,849864075,3.266,-9.094,-0.617,0.000,0.002,-0.002,-222674
7.700305375,849869296,3.266,-9.094,-0.617,0.004,0.000,0.002,-223418
7.700396125,849876516,3.227,-9.137,-0.656,0.004,0.000,0.002,-221674
7.700485208,849879736,3.227,-9.137,-0.656,0.000,0.000,0.002,-223589
7.70504,849886956,3.227,-9.137,-0.656,-0.002,0.000,0.002,-221636
7.711250833,849893177,3.227,-9.172,-0.617,-0.002,0.000,0.002,-222201
7.716470917,849898398,3.227,-9.172,-0.617,0.000,0.000,0.000,-222683
7.733723667,849903618,3.266,-9.133,-0.539,0.000,0.000,0.000,-222039
7.733821,849907838,3.266,-9.133,-0.539,0.000,0.000,0.000,-221707
7.733916458,849914058,3.266,-9.133,-0.578,0.000,0.000,0.000,-222577
7.736291667,849918278,3.266,-9.133,-0.578,0.000,0.000,0.000,-221680
7.741570958,849923498,3.227,-9.172,-0.656,0.000,0.000,0.000,-222162
7.745779125,849927718,3.227,-9.172,-0.656,0.002,0.002,-0.002,-222805
7.751961083,849933939,3.227,-9.172,-0.617,0.002,0.002,-0.002,-223056
7.767075875,849939160,3.227,-9.172,-0.617,0.000,0.002,-0.004,-221810
7.76715,849945381,3.227,-9.137,-0.539,0.000,0.002,-0.004,-222245
7.76868775,849950602,3.227,-9.137,-0.539,-0.004,0.000,-0.002,-222688
7.77490775,849956823,3.227,-9.137,-0.539,0.002,0.000,0.000,-222189
7.780140583,849962043,3.266,-9.176,-0.578,0.002,0.000,0.000,-222273
7.785372833,849967263,3.266,-9.176,-0.578,0.008,0.000,0.004,-222757
7.800383417,849974485,3.227,-9.098,-0.656,0.008,0.000,0.004,-221844
7.800456917,849978705,3.227,-9.098,-0.656,0.000,0.000,0.002,-222725
7.801986375,849983925,3.266,-9.176,-0.578,0.000,0.000,0.002,-221736
7.806211833,849988146,3.266,-9.176,-0.578,-0.004,0.002,-0.002,-222361
7.812455958,849994367,3.266,-9.176,-0.578,-0.004,0.002,-0.002,-223194
7.816664333,849998588,3.266,-9.176,-0.578,-0.002,0.002,-0.002,-222243
7.833773333,850003809,3.266,-9.176,-0.578,-0.002,0.002,-0.002,-221536
7.833846458,850008030,3.266,-9.176,-0.578,0.002,0.000,0.004,-222326
7.833918833,850015250,3.227,-9.133,-0.691,0.002,0.000,0.004,-221974
7.838541,850020470,3.227,-9.133,-0.691,0.002,0.002,0.002,-222252
7.843767875,850025690,3.227,-9.137,-0.656,0.002,0.002,0.002,-221913
7.847999417,850029911,3.227,-9.137,-0.656,-0.002,0.000,-0.004,-222853
7.867293375,850037132,3.266,-9.133,-0.617,-0.002,0.000,-0.004,-222227
7.867467625,850041353,3.266,-9.133,-0.617,-0.002,0.000,-0.002,-222027
7.867561667,850046574,3.266,-9.176,-0.539,-0.002,0.000,-0.002,-222406
7.869922,850051795,3.266,-9.176,-0.539,0.002,0.002,0.002,-222660
7.87810725,850060015,3.266,-9.176,-0.539,0.002,0.002,0.004,-221781
7.883322917,850065235,3.227,-9.172,-0.656,0.002,0.002,0.004,-222621
7.900588667,850070455,3.227,-9.172,-0.656,0.000,0.002,0.002,-222095
7.900685167,850078676,3.266,-9.211,-0.578,0.000,0.002,0.002,-222996
7.900781458,850081896,3.266,-9.211,-0.578,0.000,0.002,-0.002,-222451
7.906195292,850088117,3.266,-9.211,-0.578,-0.004,0.000,0.000,-221880
7.912429542,850094338,3.266,-9.176,-0.539,-0.004,0.000,0.000,-223026
7.917637917,850099559,3.266,-9.176,-0.539,0.000,0.000,0.000,-222409
7.933714833,850104779,3.266,-9.176,-0.617,0.000,0.000,0.000,-222585
7.93380675,850108999,3.266,-9.176,-0.617,0.004,-0.002,0.004,-221946
7.93445025,850116220,3.266,-9.133,-0.617,0.004,-0.002,0.004,-222512
7.938472958,850120441,3.266,-9.133,-0.617,0.000,0.000,0.000,-221680
7.9437495,850125661,3.266,-9.133,-0.578,0.000,0.000,0.000,-222313
7.947883667,850129881,3.266,-9.133,-0.578,-0.002,0.000,-0.002,-222712
7.967048042,850138102,3.227,-9.172,-0.617,-0.002,0.000,-0.002,-221807
7.967138458,850141323,3.227,-9.172,-0.617,0.000,0.000,0.000,-222307
7.967228583,850146543,3.227,-9.137,-0.656,0.000,0.000,0.000,-222600
7.969776125,850151763,3.227,-9.137,-0.656,0.002,0.000,0.002,-222161
7.977032083,850158983,3.266,-9.133,-0.617,0.002,0.000,0.002,-222105
7.980202583,850162203,3.266,-9.133,-0.617,0.002,0.000,0.000,-223378
8.000389042,850168423,3.266,-9.133,-0.617,0.000,0.000,0.002,-222847
8.000480333,850175645,3.266,-9.133,-0.617,0.000,0.000,0.002,-222487
8.000573167,850180866,3.266,-9.133,-0.617,-0.004,0.000,-0.002,-222610
8.005179333,850187087,3.266,-9.133,-0.539,-0.004,0.000,-0.002,-222584
8.01139375,850193308,3.266,-9.133,-0.539,0.000,0.000,-0.002,-222767
8.017561583,850199529,3.266,-9.133,-0.539,0.002,0.002,0.002,-222767
8.033748292,850205749,3.305,-9.176,-0.656,0.002,0.002,0.002,-222244
8.033823083,850209969,3.305,-9.176,-0.656,-0.002,0.000,0.000,-222356
8.034162667,850216190,3.305,-9.176,-0.617,-0.002,0.000,0.000,-222261
8.038483542,850220411,3.305,-9.176,-0.617,0.000,0.000,0.000,-222215
8.043732833,850225631,3.305,-9.094,-0.617,0.000,0.000,0.000,-222803
8.047834,850229851,3.305,-9.094,-0.617,0.000,0.000,-0.002,-222338
8.06711625,850237072,3.266,-9.133,-0.578,0.000,0.000,-0.002,-222441
8.067191708,850242293,3.266,-9.133,-0.578,-0.002,-0.002,0.000,-222726
8.06726575,850248514,3.266,-9.133,-0.578,-0.002,0.000,0.000,-222852
8.072820625,850254735,3.266,-9.176,-0.617,-0.002,0.000,0.000,-221635
8.07698275,850258956,3.266,-9.176,-0.617,0.002,0.002,0.000,-222091
8.082248417,850264176,3.227,-9.137,-0.656,0.002,0.002,0.000,-221688
8.10051325,850273396,3.227,-9.137,-0.656,0.000,0.002,0.000,-221874
8.100604458,850278616,3.227,-9.137,-0.656,0.000,0.000,0.000,-222039
8.101904833,850283836,3.266,-9.094,-0.539,0.000,0.000,0.000,-222646
8.107135833,850289056,3.266,-9.094,-0.539,0.000,0.000,0.000,-221607
8.114351708,850296276,3.266,-9.133,-0.578,0.000,0.000,0.000,-222280
8.133862125,850301496,3.266,-9.133,-0.578,0.000,0.000,0.000,-222110
8.134082667,850306716,3.266,-9.133,-0.656,0.000,0.000,0.000,-222911
8.134170708,850310936,3.266,-9.133,-0.656,0.000,0.000,0.000,-222720
8.135248167,850317156,3.266,-9.094,-0.617,0.000,0.000,0.000,-221875
8.13945025,850321376,3.266,-9.094,-0.617,0.000,0.000,0.000,-222451
8.14370125,850325596,3.227,-9.137,-0.578,0.000,0.000,0.000,-221758
8.147867167,850329816,3.227,-9.137,-0.578,0.000,0.000,0.000,-223184
8.167053417,850336036,3.266,-9.176,-0.578,0.000,0.000,0.000,-221815
8.167127208,850341256,3.266,-9.176,-0.578,0.000,0.000,0.000,-222398
8.167201333,850346478,3.266,-9.176,-0.617,0.000,0.000,0.000,-222493
8.169701958,850351698,3.266,-9.176,-0.617,0.000,0.000,0.000,-222097
8.176010542,850357919,3.266,-9.176,-0.617,0.000,0.000,0.000,-221595
8.180218042,850362139,3.227,-9.172,-0.578,0.000,0.000,0.000,-222037
8.184444875,850366359,3.227,-9.172,-0.578,0.000,0.000,0.000,-222548
8.20038425,850371579,3.227,-9.172,-0.578,0.000,0.000,0.000,-221674
8.200473375,850377799,3.266,-9.211,-0.578,0.000,0.000,0.000,-222529
8.200561333,850381019,3.266,-9.211,-0.578,0.000,0.000,0.000,-222942
8.204327625,850386239,3.227,-9.172,-0.539,0.000,0.000,0.000,-222367
8.20953225,850391459,3.227,-9.172,-0.539,0.000,0.000,0.000,-222240
8.215745792,850397680,3.227,-9.137,-0.656,0.000,0.000,0.000,-222632
8.219986208,850401900,3.227,-9.137,-0.656,0.000,0.000,0.000,-222519
8.233761708,850407121,3.227,-9.172,-0.656,0.000,0.000,0.000,-221010
8.233834375,850413341,3.227,-9.172,-0.656,0.000,0.000,0.000,-222407
8.237634167,850419561,3.227,-9.172,-0.656,0.000,0.000,0.000,-222285
8.24380525,850425782,3.227,-9.215,-0.578,0.000,0.000,0.000,-222571
8.249077083,850431002,3.227,-9.215,-0.578,0.000,0.000,0.000,-223196
8.2670565,850436222,3.227,-9.172,-0.617,0.000,0.000,0.000,-222763
8.267130083,850440443,3.227,-9.172,-0.617,0.000,0.000,0.000,-221925
8.267202583,850445664,3.266,-9.133,-0.539,0.000,0.000,0.000,-222093
8.268972875,850450884,3.266,-9.133,-0.539,0.000,0.000,0.000,-222423
8.275113042,850457104,3.266,-9.133,-0.617,0.000,0.000,0.000,-222112
8.280408958,850462324,3.266,-9.133,-0.617,0.000,0.000,0.000,-222163
8.286631375,850468544,3.266,-9.133,-0.617,0.000,0.000,0.000,-222032
8.3004115,850471764,3.266,-9.133,-0.617,0.000,0.000,0.000,-222096
8.300484583,850477984,3.266,-9.133,-0.617,0.000,0.000,0.000,-222360
8.302276917,850484204,3.305,-9.133,-0.617,0.000,0.000,0.000,-222492
8.307529125,850489424,3.305,-9.133,-0.617,0.000,0.000,0.000,-221975
8.313768292,850495644,3.266,-9.176,-0.539,0.000,0.000,0.000,-222636
8.317948458,850499865,3.266,-9.176,-0.539,0.000,0.000,0.000,-222791
8.333838083,850505085,3.227,-9.137,-0.617,0.000,0.000,0.000,-222549
8.333911083,850510305,3.227,-9.137,-0.617,0.000,0.000,0.000,-222477
8.335609042,850517525,3.191,-9.133,-0.617,0.000,0.000,0.000,-222448
8.340824,850522745,3.191,-9.133,-0.617,0.000,0.000,0.000,-221841
8.346041667,850527965,3.227,-9.137,-0.578,0.000,0.000,0.000,-222374
8.367118958,850536185,3.227,-9.137,-0.578,0.000,0.000,0.000,-222324
8.367211542,850541405,3.227,-9.137,-0.578,0.000,0.000,0.000,-222831
8.367301958,850547625,3.266,-9.133,-0.617,0.000,0.000,0.000,-222233
8.370910167,850552845,3.266,-9.133,-0.617,0.000,0.000,0.000,-221703
8.377152833,850559065,3.266,-9.133,-0.617,0.000,0.000,0.000,-222655
8.380386792,850562285,3.266,-9.133,-0.617,0.000,0.000,0.000,-222464
8.386502167,850568505,3.266,-9.133,-0.617,0.000,0.000,0.000,-222075
8.400571792,850574725,3.266,-9.176,-0.500,0.000,0.000,0.000,-222512
8.400793292,850579945,3.266,-9.176,-0.500,0.000,0.000,0.000,-222438
8.403195708,850585165,3.305,-9.133,-0.539,0.000,0.000,0.000,-222131
8.408397042,850590385,3.305,-9.133,-0.539,0.000,0.000,0.000,-222493
8.414693375,850596605,3.266,-9.133,-0.656,0.000,0.000,0.000,-222105
8.419938958,850601825,3.266,-9.133,-0.656,0.000,0.000,0.000,-222895
8.433712042,850608045,3.266,-9.176,-0.656,0.000,0.000,0.000,-221525
8.433820208,850611265,3.266,-9.176,-0.656,0.000,0.000,0.000,-222971
8.435558333,850617485,3.266,-9.133,-0.656,0.000,0.000,0.000,-222826
8.439786542,850621705,3.266,-9.133,-0.656,0.000,0.000,0.000,-221775
8.445031708,850626925,3.305,-9.176,-0.539,0.000,0.000,0.000,-222165
8.450233917,850632145,3.305,-9.176,-0.539,0.000,0.000,0.000,-222139
8.467123083,850639365,3.305,-9.176,-0.539,0.000,0.000,0.000,-222456
8.467196792,850643585,3.266,-9.176,-0.617,0.000,0.000,0.000,-222277
8.467270458,850648805,3.266,-9.176,-0.617,0.000,0.000,0.000,-221793
8.473054375,850655025,3.266,-9.133,-0.617,0.000,0.000,0.000,-222156
8.477319208,850659245,3.266,-9.133,-0.617,0.000,0.000,0.000,-221886
8.481555375,850663465,3.266,-9.176,-0.656,0.000,0.000,0.000,-222010
8.485759625,850667685,3.266,-9.176,-0.539,0.000,0.000,0.000,-222571
8.500397583,850672905,3.266,-9.176,-0.539,-0.004,0.000,0.002,-221937
8.500493042,850678126,3.227,-9.137,-0.578,-0.004,0.000,0.002,-222137
8.500585875,850682347,3.227,-9.137,-0.578,0.000,0.000,-0.002,-222363
8.505658,850687568,3.227,-9.137,-0.578,0.000,0.000,-0.002,-221858
8.510876458,850692789,3.227,-9.137,-0.578,0.000,0.000,0.000,-222618
8.51802225,850700009,3.227,-9.172,-0.578,0.000,0.000,0.000,-222911
8.533702375,850703229,3.227,-9.172,-0.578,0.002,0.002,0.004,-221751
8.533793708,850710450,3.227,-9.172,-0.578,0.000,0.002,-0.002,-222218
8.534743458,850716673,3.305,-9.176,-0.539,0.000,0.002,-0.002,-222252
8.539008917,850720894,3.305,-9.176,-0.539,-0.006,0.002,-0.006,-221965
8.544195208,850726115,3.227,-9.172,-0.500,-0.006,0.002,-0.006,-221940
8.54842175,850730336,3.227,-9.172,-0.500,0.000,0.000,0.004,-222100
8.567023875,850736556,3.266,-9.133,-0.617,0.000,0.000,0.004,-222403
8.567097417,850741776,3.266,-9.133,-0.617,0.008,0.002,0.004,-222701
8.567171167,850746996,3.227,-9.133,-0.691,0.008,0.002,0.004,-222642
8.569289708,850751216,3.227,-9.133,-0.691,0.002,0.000,0.002,-222594
8.57651675,850758439,3.266,-9.094,-0.656,0.002,0.000,0.002,-222624
8.581763458,850763659,3.266,-9.094,-0.656,0.000,0.000,-0.002,-222872
8.600452875,850769880,3.266,-9.094,-0.656,-0.004,0.000,-0.002,-222591
8.600547625,850776101,3.227,-9.215,-0.578,-0.004,0.000,-0.002,-222798
8.600639208,850780322,3.227,-9.215,-0.578,0.000,0.000,0.002,-222265
8.6036345,850785542,3.305,-9.176,-0.617,0.000,0.000,0.002,-222355
8.608783208,850790762,3.305,-9.176,-0.617,0.002,0.004,0.004,-222371
8.615074458,850796982,3.266,-9.133,-0.656,0.002,0.004,0.004,-222537
8.619226292,850801203,3.266,-9.133,-0.656,-0.002,0.002,0.002,-223045
8.633837,850806424,3.266,-9.176,-0.578,-0.002,0.002,0.002,-222754
8.63392975,850811645,3.266,-9.176,-0.578,-0.002,0.000,0.000,-222687
8.635926167,850817866,3.227,-9.137,-0.500,-0.002,0.000,0.000,-222685
8.640178792,850822087,3.227,-9.137,-0.500,-0.002,0.002,-0.002,-222259
8.645388625,850827308,3.227,-9.172,-0.539,-0.002,0.002,-0.002,-221688
8.650566667,850832529,3.227,-9.172,-0.539,0.004,0.000,0.004,-222668
8.667078708,850838749,3.227,-9.094,-0.691,0.004,0.000,0.004,-222849
8.667154125,850843970,3.227,-9.094,-0.691,0.002,0.002,0.002,-222555
8.667227292,850848191,3.227,-9.172,-0.578,0.002,0.002,0.002,-222539
8.67050125,850852411,3.227,-9.172,-0.578,-0.002,0.002,-0.002,-222155
8.677720375,850859632,3.266,-9.176,-0.539,-0.002,0.002,-0.002,-221922
8.682940458,850864853,3.266,-9.176,-0.539,-0.002,0.000,-0.002,-222025
8.700300792,850869074,3.227,-9.172,-0.500,-0.002,0.000,-0.002,-221934
8.70039275,850874295,3.227,-9.172,-0.500,0.000,0.000,0.000,-221881
8.700484,850880515,3.227,-9.133,-0.730,0.000,0.000,0.000,-222490
8.703815708,850885735,3.227,-9.133,-0.730,0.004,0.004,0.000,-222674
8.709033833,850890955,3.227,-9.133,-0.730,0.004,0.000,0.000,-222073
8.714290458,850896175,3.227,-9.172,-0.617,0.004,0.000,0.000,-223245
8.717493708,850899395,3.305,-9.176,-0.656,0.004,0.000,0.000,-222540
8.733713,850903615,3.305,-9.176,-0.656,-0.002,0.000,-0.006,-221794
8.733806792,850908836,3.227,-9.172,-0.539,-0.002,0.000,-0.006,-222215
8.733900333,850914057,3.227,-9.172,-0.539,0.000,-0.002,-0.002,-222208
8.73936075,850921277,3.227,-9.137,-0.617,0.000,-0.002,-0.002,-221435
8.7445875,850926498,3.227,-9.137,-0.617,0.002,0.000,0.004,-222412
8.750813458,850932718,3.227,-9.137,-0.617,0.002,0.000,0.002,-222237
8.7670585,850938939,3.266,-9.133,-0.617,0.002,0.000,0.002,-222152
8.767132,850943159,3.266,-9.133,-0.617,0.002,0.002,0.000,-223381
8.767204542,850948380,3.266,-9.133,-0.617,0.002,0.002,0.000,-222230
8.771905625,850953601,3.266,-9.133,-0.617,-0.004,0.002,0.000,-222380
8.777923375,850959822,3.266,-9.176,-0.578,-0.004,0.002,0.000,-221311
8.783126875,850965043,3.266,-9.176,-0.578,-0.002,0.002,0.000,-222254
8.800308542,850970264,3.266,-9.176,-0.578,-0.002,0.002,0.000,-222170
8.800385833,850974485,3.266,-9.176,-0.578,0.004,0.000,0.004,-221797
8.800469417,850981705,3.266,-9.133,-0.656,0.004,0.000,0.004,-222797
8.80299525,850984925,3.266,-9.133,-0.656,0.004,0.002,0.002,-221982
8.809241292,850991145,3.266,-9.133,-0.656,-0.002,0.000,0.002,-221529
8.815452292,850997366,3.227,-9.172,-0.656,-0.002,0.000,0.002,-222200
8.819611,851001587,3.227,-9.172,-0.656,-0.002,0.000,-0.002,-221432
8.833731375,851006808,3.266,-9.133,-0.578,-0.002,0.000,-0.002,-222246
8.833806208,851011029,3.266,-9.133,-0.578,-0.002,0.000,0.000,-222110
8.835340875,851017250,3.191,-9.133,-0.617,-0.002,0.000,0.000,-222895
8.839568417,851021472,3.305,-9.176,-0.617,-0.002,0.000,0.000,-222370
8.843795875,851025693,3.305,-9.176,-0.617,0.000,-0.002,0.004,-222503
8.850013458,851031914,3.266,-9.133,-0.617,0.000,-0.002,0.004,-223282
8.867248625,851038135,3.266,-9.133,-0.617,0.000,0.000,0.000,-221582
8.867329542,851043355,3.266,-9.133,-0.617,-0.002,0.002,0.000,-221847
8.867405083,851048576,3.227,-9.172,-0.539,-0.002,0.002,0.000,-222302
8.870924,851052797,3.227,-9.172,-0.539,0.000,0.002,0.000,-221322
8.878102917,851060017,3.266,-9.176,-0.578,0.000,0.002,0.000,-222594
8.8823245,851064237,3.266,-9.176,-0.578,0.000,0.004,0.000,-222870
8.900382958,851069457,3.227,-9.172,-0.617,0.000,0.004,0.000,-222610
8.900457708,851074677,3.227,-9.172,-0.617,0.004,0.002,-0.002,-221920
8.900531917,851080898,3.266,-9.176,-0.578,0.004,0.002,-0.002,-222961
8.904201833,851086119,3.266,-9.176,-0.578,0.000,0.002,-0.002,-222830
8.910427167,851092340,3.266,-9.176,-0.578,0.000,0.002,-0.002,-222233
8.915656542,851097561,3.266,-9.176,-0.578,-0.004,0.000,0.000,-223240
8.933732458,851103782,3.266,-9.176,-0.578,-0.002,0.000,0.000,-222376
8.933827,851110003,3.266,-9.133,-0.617,-0.002,0.000,0.000,-222617
8.933917292,851115224,3.266,-9.133,-0.617,0.002,0.000,0.002,-222534
8.939471375,851121444,3.227,-9.137,-0.617,0.002,0.000,0.002,-222206
8.943748958,851125664,3.227,-9.137,-0.617,0.000,0.002,0.002,-222222
8.948910667,851130885,3.305,-9.133,-0.617,0.000,0.002,0.002,-222106
8.953148583,851135106,3.305,-9.133,-0.617,-0.002,0.002,0.000,-221977
8.967094583,851141327,3.227,-9.137,-0.617,-0.002,0.002,0.000,-222010
8.967170833,851145548,3.227,-9.137,-0.617,-0.004,-0.004,0.002,-222747
8.968803583,851150769,3.227,-9.172,-0.578,-0.004,-0.004,0.002,-223382
8.973078417,851154990,3.227,-9.172,-0.578,-0.002,0.000,-0.002,-221691
8.981231542,851163211,3.227,-9.098,-0.617,-0.002,0.000,-0.002,-222716
9.000389,851169433,3.227,-9.098,-0.617,0.002,0.000,0.002,-222887
9.000463583,851174653,3.227,-9.098,-0.617,0.000,0.002,-0.002,-222095
9.00053775,851180874,3.227,-9.137,-0.617,0.000,0.002,-0.002,-222154
9.004194542,851186095,3.227,-9.137,-0.617,0.000,0.002,-0.002,-222332
9.009401542,851191316,3.227,-9.172,-0.578,0.000,0.002,-0.002,-222627
9.013631875,851195537,3.227,-9.172,-0.578,0.000,0.002,0.000,-222817
9.019787542,851201757,3.305,-9.133,-0.578,0.000,0.002,0.000,-222611
9.033742875,851206977,3.305,-9.133,-0.578,0.000,-0.002,0.002,-222846
9.033820667,851213198,3.266,-9.176,-0.578,0.000,-0.002,0.002,-222827
9.036502083,851218419,3.266,-9.176,-0.578,0.002,-0.002,0.004,-222680
9.043777083,851225640,3.266,-9.176,-0.578,0.004,0.000,0.002,-221980
9.047950958,851229860,3.266,-9.176,-0.617,0.004,0.000,0.002,-223056
9.067062667,851235080,3.266,-9.176,-0.617,0.002,0.000,0.000,-222433
9.067135208,851240301,3.266,-9.133,-0.617,0.002,0.000,0.000,-221960
9.067232125,851243521,3.227,-9.137,-0.656,0.002,0.000,0.000,-222151
9.06730725,851247741,3.227,-9.137,-0.656,-0.002,0.000,-0.002,-222518
9.071071833,851252962,3.266,-9.133,-0.578,-0.002,0.000,-0.002,-222234
9.0752115,851257183,3.266,-9.133,-0.578,0.000,0.002,-0.002,-222062
9.082502333,851264404,3.227,-9.137,-0.617,0.000,0.002,-0.002,-222563
9.100601083,851269610,3.227,-9.137,-0.617,0.000,0.002,0.000,-222563
9.100692833,851274830,3.227,-9.098,-0.656,0.000,0.002,0.000,-221713
9.100784167,851280050,3.227,-9.098,-0.656,-0.002,0.000,0.000,-222646
9.10537925,851287271,3.227,-9.098,-0.656,-0.002,-0.002,-0.002,-222290
9.108522208,851290492,3.266,-9.133,-0.539,-0.002,-0.002,-0.002,-222348
9.112807917,851294713,3.227,-9.137,-0.578,-0.002,-0.002,-0.002,-223068
9.117989833,851299934,3.227,-9.137,-0.578,-0.002,0.000,-0.002,-223019
9.133937083,851307155,3.227,-9.137,-0.578,0.000,0.002,0.000,-222020
9.134164417,851311375,3.227,-9.172,-0.578,0.000,0.002,0.000,-222450
9.134611667,851316595,3.227,-9.172,-0.578,-0.002,0.002,0.006,-221901
9.140848708,851322816,3.266,-9.133,-0.578,-0.002,0.002,0.006,-222516
9.146136875,851328037,3.266,-9.133,-0.578,0.002,0.000,0.002,-222965
9.152371458,851334257,3.191,-9.176,-0.578,0.002,0.000,0.002,-222064
9.167045792,851338478,3.191,-9.176,-0.578,-0.002,0.002,0.000,-221261
9.167138417,851345699,3.266,-9.176,-0.539,-0.002,0.002,0.000,-222745
9.167226708,851348920,3.266,-9.176,-0.539,0.000,0.000,-0.002,-223175
9.172236083,851354141,3.227,-9.172,-0.617,0.000,0.000,-0.002,-222504
9.176391708,851358362,3.227,-9.172,-0.617,0.000,-0.002,0.000,-222509
9.183682583,851365583,3.227,-9.137,-0.617,0.000,-0.002,0.000,-223362
9.200390667,851370803,3.227,-9.137,-0.617,0.002,0.002,0.002,-221978
9.200483542,851377023,3.227,-9.137,-0.617,-0.002,0.000,0.000,-222730
9.201341708,851383246,3.227,-9.137,-0.617,-0.002,0.000,0.000,-222793
9.205563,851387468,3.227,-9.137,-0.617,-0.002,0.000,0.000,-222160
9.211780833,851393689,3.266,-9.133,-0.578,-0.002,0.000,0.000,-223007
9.217000792,851398910,3.266,-9.133,-0.578,0.002,0.004,0.004,-222477
9.233724917,851405131,3.266,-9.176,-0.578,0.002,0.004,0.004,-222086
9.233817,851409351,3.266,-9.176,-0.578,0.000,0.002,0.002,-222255
9.2339075,851414571,3.266,-9.176,-0.539,0.000,0.002,0.002,-221071
9.23787875,851419777,3.266,-9.176,-0.539,0.002,-0.002,-0.002,-221071
9.24408875,851425997,3.227,-9.137,-0.617,0.002,-0.002,-0.002,-222230
9.248325292,851430218,3.227,-9.137,-0.617,0.004,-0.002,-0.002,-223215
9.267049792,851436439,3.266,-9.133,-0.578,0.004,-0.002,-0.002,-221964
9.267124042,851442660,3.266,-9.133,-0.578,0.000,0.000,0.000,-222192
9.267197,851447880,3.266,-9.133,-0.578,0.000,0.002,0.000,-222032
9.272278208,851454101,3.227,-9.172,-0.578,0.000,0.002,0.000,-222478
9.277402542,851459321,3.227,-9.172,-0.578,0.002,0.002,0.000,-221886
9.283838542,851465541,3.227,-9.172,-0.617,0.002,0.002,0.000,-222555
9.300380542,851469762,3.227,-9.172,-0.617,0.004,0.002,0.004,-222706
9.300454792,851474982,3.227,-9.176,-0.691,0.004,0.002,0.004,-222075
9.300527833,851479203,3.227,-9.176,-0.691,0.002,0.000,0.000,-222787
9.303496833,851485423,3.191,-9.133,-0.578,0.002,0.000,0.000,-222011
9.30767725,851489643,3.191,-9.133,-0.578,0.000,0.002,-0.002,-222049
9.312967333,851494864,3.227,-9.137,-0.500,0.000,0.002,-0.002,-222448
9.317190042,851499085,3.227,-9.137,-0.500,0.000,-0.004,-0.002,-222571
9.333738417,851506306,3.227,-9.137,-0.617,0.000,-0.004,-0.002,-222066
9.333811,851511527,3.227,-9.137,-0.617,0.002,0.000,0.002,-222529
9.334763042,851516748,3.266,-9.133,-0.656,0.002,0.000,0.002,-223033
9.33906375,851520969,3.266,-9.133,-0.656,0.002,0.004,0.004,-222039
9.346284042,851528190,3.266,-9.176,-0.656,0.002,0.004,0.004,-222906
9.349494292,851531413,3.266,-9.176,-0.656,-0.002,0.000,0.000,-222503
9.367122667,851538634,3.266,-9.176,-0.656,-0.002,0.000,0.000,-222135
9.36719775,851543855,3.227,-9.137,-0.539,-0.002,0.000,0.000,-221883
9.367270917,851549076,3.227,-9.137,-0.539,0.000,0.000,0.000,-222280
9.3744195,851556296,3.266,-9.176,-0.656,0.000,0.000,0.000,-222463
9.380831667,851562516,3.266,-9.176,-0.656,0.004,0.002,0.004,-222343
9.386812542,851568736,3.266,-9.176,-0.656,0.004,0.000,0.002,-222150
9.400433083,851574957,3.227,-9.094,-0.691,0.004,0.000,0.002,-221787
9.400505708,851580177,3.227,-9.094,-0.691,0.000,0.000,0.002,-221978
9.404522833,851586397,3.266,-9.133,-0.578,0.000,0.000,0.002,-223342
9.408656125,851590617,3.266,-9.133,-0.578,0.000,0.002,-0.006,-222022
9.413934083,851595838,3.227,-9.137,-0.539,0.000,0.002,-0.006,-222274
9.419087583,851601059,3.227,-9.137,-0.539,0.000,0.000,0.000,-222764
9.433771625,851609279,3.227,-9.137,-0.539,0.000,0.002,0.000,-222534
