pc_time_s,teensy_time_us,ax,ay,az,gx,gy,gz,load_raw
2.006836583,447774443,3.227,-9.137,-0.961,0.008,0.000,0.006,-221079
2.00692875,447778664,3.227,-9.137,-0.961,-0.002,-0.004,0.002,-221909
2.007015167,447783885,3.227,-9.137,-0.961,0.002,0.004,-0.002,-221922
2.007102625,447788106,3.266,-9.133,-1.000,0.002,0.004,-0.002,-221867
2.007191042,447791327,3.266,-9.133,-1.000,-0.008,-0.004,0.006,-222188
2.007276167,447796549,3.266,-9.133,-1.000,0.014,-0.002,0.000,-222416
2.007366708,447800770,3.266,-9.133,-1.000,-0.004,-0.002,0.010,-221504
2.007453708,447804991,3.266,-9.133,-1.000,-0.012,0.002,-0.004,-221993
2.007544208,447810212,3.266,-9.133,-1.000,0.004,0.006,-0.008,-222306
2.007631458,447813433,3.266,-9.133,-1.000,-0.012,0.006,-0.006,-221184
2.007722792,447818641,3.266,-9.133,-0.961,-0.012,0.006,-0.006,-221184
2.00781025,447820861,3.266,-9.133,-0.961,0.000,-0.002,-0.002,-222145
2.007899333,447825082,3.266,-9.133,-0.961,-0.006,-0.004,0.020,-221827
2.007996458,447829303,3.266,-9.133,-0.961,-0.002,0.000,0.000,-221785
2.008091167,447833524,3.266,-9.133,-0.961,0.014,0.002,0.000,-221279
2.008182625,447838744,3.266,-9.133,-0.961,-0.010,0.000,0.016,-221406
2.008272542,447842965,3.266,-9.133,-0.961,0.002,-0.002,-0.008,-221440
2.008374667,447847186,3.191,-9.133,-0.961,0.002,-0.002,-0.008,-222270
2.008462375,447850407,3.191,-9.133,-0.961,-0.002,0.002,0.016,-223046
2.008555167,447856628,3.191,-9.133,-0.961,-0.008,0.000,-0.004,-222490
2.008644667,447860849,3.191,-9.133,-0.961,0.010,-0.002,-0.002,-221448
2.008734292,447865070,3.191,-9.133,-0.961,-0.002,0.008,-0.008,-221678
2.008828375,447869291,3.191,-9.133,-0.961,-0.014,0.004,-0.008,-221145
2.0089175,447873512,3.191,-9.133,-0.961,-0.006,-0.004,0.000,-222164
2.009012083,447877733,3.227,-9.137,-1.000,-0.006,-0.004,0.000,-221749
2.009102208,447879954,3.227,-9.137,-1.000,0.006,-0.006,-0.006,-222171
2.009197292,447885175,3.227,-9.137,-1.000,-0.002,0.010,0.006,-221144
2.009286583,447889396,3.227,-9.137,-1.000,-0.008,-0.004,0.002,-221343
2.009379458,447894617,3.227,-9.137,-1.000,0.004,0.000,0.006,-221912
2.009473583,447898838,3.227,-9.137,-1.000,-0.006,-0.010,-0.004,-222068
2.009560625,447904059,3.227,-9.137,-1.000,0.000,0.004,-0.002,-221781
2.009654167,447908280,3.266,-9.098,-0.922,0.000,0.004,-0.002,-221390
2.009739708,447911501,3.266,-9.098,-0.922,-0.006,0.000,0.023,-222381
2.009829792,447917722,3.266,-9.098,-0.922,-0.014,0.006,0.008,-222378
2.009916083,447921943,3.266,-9.098,-0.922,-0.004,0.000,0.008,-222433
2.010004458,447926164,3.266,-9.098,-0.922,0.004,0.008,0.004,-221605
2.010092,447930385,3.266,-9.098,-0.922,-0.002,0.004,-0.004,-221886
2.010181292,447935606,3.266,-9.098,-0.922,-0.002,0.010,0.008,-222296
2.010268875,447938827,3.266,-9.059,-1.039,-0.002,0.010,0.008,-222272
2.010356417,447941048,3.266,-9.059,-1.039,-0.012,-0.004,0.010,-222736
2.010447958,447946269,3.266,-9.059,-1.039,0.012,-0.006,-0.004,-222275
2.010531875,447950490,3.266,-9.059,-1.039,0.025,0.002,0.000,-222475
2.010622583,447955711,3.266,-9.059,-1.039,-0.014,0.012,-0.004,-222518
2.010707958,447958932,3.266,-9.059,-1.039,0.002,0.002,-0.010,-221941
2.010801792,447963153,3.266,-9.059,-1.039,-0.006,0.002,-0.008,-221659
2.010888542,447966374,3.227,-9.094,-0.922,-0.006,0.002,-0.008,-222200
2.010979625,447968595,3.227,-9.094,-0.922,-0.006,-0.002,-0.006,-222213
2.011077292,447972816,3.227,-9.094,-0.922,0.016,-0.012,0.012,-222073
2.011202083,447977037,3.227,-9.094,-0.922,-0.004,-0.006,0.008,-222900
2.011295875,447980258,3.227,-9.094,-0.922,-0.004,0.006,-0.008,-222691
2.011383833,447984479,3.227,-9.094,-0.922,0.020,-0.006,-0.027,-221633
2.0114765,447988700,3.227,-9.094,-0.922,-0.014,-0.004,0.000,-222090
2.011566,447992921,3.266,-9.094,-1.000,-0.014,-0.004,0.000,-221132
2.011653167,447996142,3.266,-9.094,-1.000,0.004,-0.006,-0.002,-221779
2.011743,448001363,3.266,-9.094,-1.000,0.014,-0.002,0.012,-221905
2.011829083,448005584,3.266,-9.094,-1.000,-0.006,-0.004,0.002,-221666
2.011920458,448009805,3.266,-9.094,-1.000,-0.002,-0.004,-0.004,-222381
2.012010917,448015026,3.266,-9.094,-1.000,-0.010,0.002,-0.006,-221754
2.012107208,448019247,3.266,-9.094,-1.000,-0.006,0.002,-0.014,-222022
2.012202042,448023468,3.266,-9.098,-0.922,-0.006,0.002,-0.014,-221866
2.012369542,448026689,3.266,-9.098,-0.922,0.004,-0.002,0.016,-222662
2.012454875,448031910,3.266,-9.098,-0.922,0.006,0.006,0.016,-223011
2.01254525,448037131,3.266,-9.098,-0.922,0.004,-0.002,-0.012,-222139
2.012636125,448041352,3.266,-9.098,-0.922,0.004,0.006,0.000,-222082
2.012752875,448045573,3.266,-9.098,-0.922,-0.006,0.004,-0.004,-222452
2.012841167,448049794,3.266,-9.098,-0.922,0.002,0.010,0.008,-221538
2.013043667,448054015,3.227,-9.133,-0.922,0.002,0.010,0.008,-222242
2.013166542,448056236,3.227,-9.133,-0.922,0.002,0.002,-0.006,-221739
2.013260833,448061457,3.227,-9.133,-0.922,0.006,0.006,-0.008,-222699
2.0133495,448065678,3.227,-9.133,-0.922,0.002,0.012,-0.010,-221733
2.033539708,448068899,3.227,-9.133,-0.922,0.002,-0.006,-0.004,-222559
2.033640833,448073120,3.227,-9.133,-0.922,0.008,-0.010,0.000,-222798
2.033719125,448077343,3.227,-9.133,-0.922,0.014,-0.006,0.004,-222509
2.033792167,448081563,3.227,-9.137,-1.039,0.014,-0.006,0.004,-222871
2.033869917,448083784,3.227,-9.137,-1.039,0.006,-0.004,-0.002,-222617
2.033946583,448089005,3.227,-9.137,-1.039,-0.010,-0.006,-0.012,-222273
2.034030708,448093226,3.227,-9.137,-1.039,-0.004,0.004,0.004,-222218
2.034104792,448097447,3.227,-9.137,-1.039,0.006,-0.004,0.006,-221905
2.034185625,448101668,3.227,-9.137,-1.039,-0.006,-0.004,0.000,-222088
2.034270208,448106889,3.227,-9.137,-1.039,0.006,-0.006,-0.014,-222343
2.03435525,448111110,3.191,-9.094,-0.961,0.006,-0.006,-0.014,-222119
2.034444625,448114332,3.191,-9.094,-0.961,-0.004,0.010,0.002,-222460
2.034531125,448120553,3.191,-9.094,-0.961,0.000,-0.002,-0.008,-221948
2.034621042,448124774,3.191,-9.094,-0.961,-0.006,0.000,-0.006,-222566
2.034708708,448128995,3.191,-9.094,-0.961,-0.006,-0.004,-0.002,-222540
2.034800542,448134216,3.191,-9.094,-0.961,-0.004,-0.004,-0.008,-222372
2.03488725,448138437,3.191,-9.094,-0.961,-0.002,-0.006,0.006,-222615
2.034974333,448141658,3.227,-9.098,-1.000,-0.002,-0.006,0.006,-220806
2.035063833,448143879,3.227,-9.098,-1.000,-0.004,0.008,0.006,-222304
2.035147792,448149100,3.227,-9.098,-1.000,0.010,0.008,0.012,-222548
2.035236917,448153321,3.227,-9.098,-1.000,0.002,0.002,-0.006,-222917
2.035312417,448158543,3.227,-9.098,-1.000,-0.002,0.000,0.008,-222082
2.035390792,448162764,3.191,-9.133,-1.000,-0.002,0.000,0.008,-222049
2.035466125,448166985,3.191,-9.133,-1.000,-0.002,-0.004,0.010,-222292
2.035544917,448171206,3.191,-9.133,-1.000,-0.002,-0.006,0.006,-223616
2.035620333,448175427,3.191,-9.133,-1.000,-0.004,-0.002,0.002,-222553
2.035693333,448179648,3.191,-9.133,-1.000,0.012,0.008,0.000,-222894
2.035774125,448183869,3.191,-9.133,-1.000,-0.012,-0.021,-0.002,-222466
2.035851292,448188090,3.227,-9.098,-1.000,-0.012,-0.021,-0.002,-222409
2.035930583,448190311,3.227,-9.098,-1.000,0.014,0.010,-0.010,-222118
2.036003792,448196533,3.227,-9.098,-1.000,0.006,0.000,0.004,-221723
2.036086542,448200753,3.227,-9.098,-1.000,0.008,0.004,0.000,-222793
2.036174667,448204974,3.227,-9.098,-1.000,0.004,0.000,0.004,-221510
2.036281625,448210195,3.227,-9.098,-1.000,-0.002,0.000,-0.008,-221902
2.036380917,448215416,3.227,-9.098,-1.000,-0.004,-0.008,-0.002,-221881
2.036460417,448219637,3.191,-9.133,-0.961,-0.004,-0.008,-0.002,-221859
2.036538292,448221858,3.191,-9.133,-0.961,-0.006,0.006,0.006,-223185
2.036612417,448227079,3.191,-9.133,-0.961,-0.012,0.006,0.014,-222335
2.03669125,448231300,3.191,-9.133,-0.961,0.002,0.000,-0.002,-222155
2.036765417,448236521,3.191,-9.133,-0.961,-0.006,0.000,0.004,-222166
2.036843417,448240727,3.191,-9.133,-0.961,0.008,-0.002,0.004,-222166
2.03691875,448244947,3.191,-9.133,-0.961,-0.002,-0.004,0.000,-222440
2.036995833,448249168,3.227,-9.098,-1.000,-0.002,-0.004,0.000,-222061
2.037075458,448251389,3.227,-9.098,-1.000,-0.002,-0.006,0.000,-222329
2.037150917,448256610,3.227,-9.098,-1.000,-0.006,0.000,-0.008,-222807
2.037230583,448260831,3.227,-9.098,-1.000,0.004,0.006,-0.004,-221712
2.037392,448264052,3.227,-9.098,-1.000,0.006,-0.004,-0.002,-221755
2.03747175,448269273,3.227,-9.098,-1.000,-0.004,0.010,0.000,-222144
2.037545,448273494,3.227,-9.098,-1.000,0.006,0.006,0.008,-221788
2.037618417,448277715,3.227,-9.133,-0.922,0.006,0.006,0.008,-221982
2.037706458,448279935,3.227,-9.133,-0.922,-0.008,0.006,-0.004,-222285
2.037782125,448284156,3.227,-9.133,-0.922,-0.002,-0.002,0.004,-222489
2.037862292,448289377,3.227,-9.133,-0.922,0.004,0.008,-0.004,-221926
2.037936292,448293598,3.227,-9.133,-0.922,0.004,-0.004,0.002,-221373
2.038012542,448298819,3.227,-9.133,-0.922,0.008,0.002,0.000,-222844
2.038087292,448303039,3.266,-9.133,-1.000,0.008,0.002,0.000,-222651
2.038162875,448306260,3.266,-9.133,-1.000,0.002,0.000,0.000,-221975
2.038244667,448311481,3.266,-9.133,-1.000,-0.006,-0.004,0.012,-221642
2.038322167,448316702,3.266,-9.133,-1.000,-0.006,-0.008,-0.006,-222248
2.038662583,448320923,3.266,-9.133,-1.000,-0.002,0.000,0.000,-222049
2.038738375,448326145,3.266,-9.133,-1.000,-0.004,0.004,-0.002,-222253
2.038815,448331366,3.266,-9.133,-1.000,0.004,0.002,-0.002,-222691
2.038891958,448336587,3.266,-9.133,-0.961,0.004,0.002,-0.002,-222124
2.0389675,448339810,3.266,-9.133,-0.961,-0.002,0.008,-0.002,-221271
2.039047208,448345031,3.266,-9.133,-0.961,-0.004,0.000,0.000,-222145
2.039124333,448349252,3.266,-9.133,-0.961,-0.004,-0.004,-0.004,-221832
2.039206792,448353473,3.266,-9.133,-0.961,0.008,-0.004,0.014,-221924
2.039282292,448357694,3.266,-9.133,-0.961,0.002,-0.012,-0.014,-222724
2.039357583,448361915,3.227,-9.137,-1.000,0.002,-0.012,-0.014,-221928
2.039438625,448364136,3.227,-9.137,-1.000,0.002,-0.002,0.006,-221950
2.039514792,448369357,3.227,-9.137,-1.000,0.008,-0.002,-0.008,-222823
2.039595208,448373578,3.227,-9.137,-1.000,-0.004,0.006,-0.004,-221836
2.039671833,448378799,3.227,-9.137,-1.000,-0.002,-0.002,0.004,-222567
2.039752792,448383020,3.227,-9.137,-1.000,-0.002,-0.004,-0.004,-222314
2.039829167,448388241,3.227,-9.137,-1.000,-0.004,-0.004,-0.006,-221872
2.03990825,448392462,3.227,-9.137,-0.961,-0.004,-0.004,-0.006,-222222
2.0399815,448395683,3.227,-9.137,-0.961,0.008,0.000,0.000,-222312
2.040055375,448400904,3.227,-9.137,-0.961,0.006,0.006,-0.002,-222402
2.04013375,448406110,3.227,-9.137,-0.961,-0.012,0.002,0.008,-222402
2.040213125,448411330,3.227,-9.137,-0.961,-0.002,0.002,-0.008,-223503
2.040292417,448415551,3.227,-9.137,-1.000,-0.002,0.002,-0.008,-221416
2.040367417,448418772,3.227,-9.137,-1.000,0.006,0.010,-0.008,-222190
2.04044675,448423993,3.227,-9.137,-1.000,-0.006,0.006,-0.016,-221930
2.040521833,448428214,3.227,-9.137,-1.000,-0.002,0.000,-0.002,-221287
2.040597667,448432435,3.227,-9.137,-1.000,-0.008,-0.002,0.008,-222109
2.040675292,448436656,3.227,-9.137,-1.000,0.008,0.010,-0.002,-222285
2.040751417,448440877,3.227,-9.137,-1.000,0.004,-0.010,-0.004,-222057
2.040831542,448445098,3.191,-9.094,-0.961,0.004,-0.010,-0.004,-222535
2.04090525,448448319,3.191,-9.094,-0.961,0.006,-0.002,0.002,-221852
2.040980167,448453541,3.191,-9.094,-0.961,0.004,0.006,0.008,-222363
2.041058542,448457762,3.191,-9.094,-0.961,0.002,-0.012,0.008,-221843
2.0411325,448461983,3.191,-9.094,-0.961,0.014,-0.008,0.000,-222027
2.041209917,448467204,3.191,-9.094,-0.961,0.000,0.006,0.000,-222248
2.041283583,448471425,3.191,-9.094,-0.961,0.014,-0.006,0.002,-222941
2.041363458,448475646,3.266,-9.133,-0.961,0.014,-0.006,0.002,-222740
2.041437625,448477867,3.266,-9.133,-0.961,-0.008,0.002,0.004,-222677
2.041511708,448482088,3.266,-9.133,-0.961,-0.004,0.004,0.000,-222462
2.041590083,448486309,3.266,-9.133,-0.961,0.006,0.006,-0.004,-222110
2.041666167,448489530,3.266,-9.133,-0.961,-0.004,-0.006,0.004,-222632
2.041744375,448493751,3.266,-9.133,-0.961,0.002,0.004,-0.008,-222332
2.041818208,448498972,3.227,-9.137,-0.961,0.002,0.004,-0.008,-222338
2.041902875,448501193,3.227,-9.137,-0.961,0.002,-0.002,0.000,-222443
2.041975542,448506416,3.227,-9.137,-0.961,0.008,0.000,0.004,-221627
2.042050792,448510621,3.227,-9.137,-0.961,0.002,-0.012,-0.002,-221627
2.042145083,448514841,3.227,-9.137,-0.961,-0.012,0.012,0.002,-222758
2.042219042,448520062,3.227,-9.137,-0.961,0.008,0.002,-0.002,-222536
2.042297125,448524283,3.227,-9.137,-0.961,0.006,-0.016,0.008,-222544
2.042370875,448529504,3.191,-9.094,-1.039,0.006,-0.016,0.008,-222329
2.042448667,448532725,3.191,-9.094,-1.039,0.006,0.000,-0.012,-222386
2.042522125,448538946,3.191,-9.094,-1.039,0.008,0.000,0.014,-222585
2.042600333,448543167,3.191,-9.094,-1.039,-0.010,0.000,0.008,-222623
2.042677125,448547388,3.191,-9.094,-1.039,0.006,-0.016,-0.010,-221533
2.042752208,448551609,3.191,-9.094,-1.039,-0.002,0.002,-0.010,-223085
2.042831292,448556830,3.191,-9.094,-1.039,0.002,-0.004,-0.006,-221845
2.042906667,448561051,3.227,-9.098,-1.039,0.002,-0.004,-0.006,-222650
2.042989458,448564272,3.227,-9.098,-1.039,-0.002,-0.002,0.002,-222341
2.043090042,448569493,3.227,-9.098,-1.039,0.002,0.002,-0.008,-221735
2.043186917,448574714,3.227,-9.098,-1.039,-0.006,0.000,-0.004,-221603
2.043268,448578935,3.227,-9.098,-1.039,0.008,-0.002,-0.004,-221716
2.043342417,448584156,3.227,-9.098,-1.039,0.006,0.000,-0.002,-222897
2.043419792,448589377,3.227,-9.098,-1.039,0.000,0.010,-0.008,-221761
2.043493917,448593598,3.227,-9.137,-1.000,0.000,0.010,-0.008,-221887
2.04357125,448596819,3.227,-9.137,-1.000,0.010,-0.004,0.008,-222526
2.043648417,448602040,3.227,-9.137,-1.000,-0.008,-0.002,-0.006,-222534
2.043724583,448606261,3.227,-9.137,-1.000,0.002,0.002,0.000,-222234
2.043800167,448610482,3.227,-9.137,-1.000,-0.002,-0.004,0.002,-221900
2.043878542,448615703,3.227,-9.137,-1.000,0.010,0.014,-0.002,-222128
2.043953667,448619924,3.227,-9.137,-1.000,-0.006,0.004,-0.008,-222063
2.044052042,448624145,3.266,-9.133,-1.000,-0.006,0.004,-0.008,-222925
2.044128125,448627366,3.266,-9.133,-1.000,0.010,0.000,0.020,-222746
2.044290667,448632587,3.266,-9.133,-1.000,0.010,0.000,-0.004,-222572
2.044369125,448637808,3.266,-9.133,-1.000,-0.002,-0.010,0.016,-221982
2.066913958,448642029,3.266,-9.133,-1.000,0.000,0.002,0.000,-222870
2.067001792,448646250,3.266,-9.133,-1.000,-0.010,-0.004,0.004,-223008
2.067075458,448649471,3.266,-9.133,-1.000,0.004,-0.004,0.002,-221862
2.067149458,448653692,3.227,-9.172,-1.000,0.004,-0.004,0.002,-222153
2.067227292,448656913,3.227,-9.172,-1.000,-0.002,0.002,0.006,-222889
2.067301917,448662134,3.227,-9.172,-1.000,-0.002,0.016,-0.010,-224103
2.067380542,448666355,3.227,-9.172,-1.000,-0.002,0.006,-0.008,-222487
2.067455625,448671576,3.227,-9.172,-1.000,0.002,0.004,-0.016,-221916
2.067532375,448676797,3.227,-9.137,-0.961,0.002,0.004,-0.016,-223070
2.067609,448679018,3.227,-9.137,-0.961,-0.014,0.012,-0.004,-221664
2.067699,448684239,3.227,-9.137,-0.961,-0.008,0.004,-0.002,-222315
2.06778575,448688460,3.227,-9.137,-0.961,0.006,-0.002,0.010,-221956
2.067872833,448692681,3.227,-9.137,-0.961,-0.006,-0.006,0.008,-222252
2.068001542,448696902,3.227,-9.137,-1.039,-0.006,-0.006,0.008,-222825
2.06808925,448699123,3.227,-9.137,-1.039,0.008,-0.004,-0.002,-222027
2.068182167,448704344,3.227,-9.137,-1.039,-0.010,0.000,0.008,-222544
2.068267292,448708565,3.227,-9.137,-1.039,0.014,0.006,0.000,-222619
2.068358375,448711786,3.227,-9.137,-1.039,-0.002,-0.004,0.012,-223287
2.068444417,448718007,3.227,-9.137,-1.039,0.004,-0.010,0.004,-222449
2.068532208,448722228,3.227,-9.098,-1.000,0.004,-0.010,0.004,-222379
2.068614833,448725449,3.227,-9.098,-1.000,-0.004,0.000,0.010,-222246
2.068687917,448731670,3.227,-9.098,-1.000,0.002,0.008,-0.004,-224128
2.068766333,448735891,3.227,-9.098,-1.000,-0.006,-0.004,0.006,-222714
2.068843292,448740112,3.227,-9.098,-1.000,-0.002,-0.002,-0.002,-222300
2.068920792,448745335,3.227,-9.098,-1.000,-0.006,0.010,0.002,-222282
2.068994,448750555,3.227,-9.098,-1.000,0.000,-0.004,0.008,-222909
2.06907075,448753776,3.227,-9.098,-1.000,0.000,-0.004,0.008,-222515
2.069143792,448756997,3.227,-9.098,-1.000,-0.008,0.000,0.004,-222753
2.069217292,448762218,3.227,-9.098,-1.000,0.008,0.000,-0.006,-222921
2.069296458,448767439,3.227,-9.098,-1.000,-0.008,0.002,0.014,-222288
2.069371625,448771660,3.227,-9.098,-1.000,0.002,-0.020,-0.006,-222697
2.06949725,448776881,3.227,-9.098,-1.000,-0.004,-0.008,-0.004,-222980
2.069593583,448781102,3.227,-9.098,-1.000,-0.004,-0.008,-0.004,-222920
2.069697583,448783323,3.227,-9.098,-1.000,0.004,0.000,0.008,-222791
2.069783708,448787544,3.227,-9.098,-1.000,0.004,-0.002,0.004,-223359
2.069863708,448791765,3.227,-9.098,-1.000,-0.004,-0.002,-0.008,-222936
2.06993975,448796986,3.227,-9.098,-1.000,-0.002,-0.002,-0.004,-222430
2.070011125,448801207,3.227,-9.098,-1.000,0.000,0.002,0.010,-223305
2.070088583,448805428,3.227,-9.098,-1.000,-0.006,0.000,-0.006,-222938
2.070163042,448809649,3.191,-9.133,-0.961,-0.006,0.000,-0.006,-222402
2.070240333,448811870,3.191,-9.133,-0.961,-0.008,0.008,0.010,-222729
2.070313708,448818091,3.191,-9.133,-0.961,-0.010,0.000,0.004,-222630
2.070389458,448822312,3.191,-9.133,-0.961,0.002,0.010,0.008,-222356
2.070462333,448826534,3.191,-9.133,-0.961,0.006,-0.004,0.000,-222354
2.0705355,448831755,3.191,-9.133,-0.961,0.000,0.002,-0.002,-222558
2.07061675,448836976,3.191,-9.133,-0.961,0.006,-0.006,0.008,-222139
2.070690875,448841197,3.227,-9.098,-1.000,0.006,-0.006,0.008,-223132
2.070775083,448843418,3.227,-9.098,-1.000,0.008,-0.010,-0.012,-222888
2.070852875,448847639,3.227,-9.098,-1.000,0.006,-0.002,0.010,-223249
2.070932792,448851860,3.227,-9.098,-1.000,-0.004,0.000,0.012,-222442
2.071005625,448856081,3.227,-9.098,-1.000,0.000,0.002,-0.008,-222766
2.071078875,448860302,3.227,-9.098,-1.000,0.006,0.000,-0.010,-222650
2.071158625,448864523,3.227,-9.098,-1.000,-0.006,0.002,-0.002,-222162
2.071234417,448869744,3.266,-9.094,-1.000,-0.006,0.002,-0.002,-222864
2.071317917,448872965,3.266,-9.094,-1.000,0.014,0.006,0.010,-223125
2.071390125,448879186,3.266,-9.094,-1.000,0.018,0.002,0.004,-222821
2.071468167,448883407,3.266,-9.094,-1.000,0.006,0.006,0.002,-222158
2.0715435,448887628,3.266,-9.094,-1.000,-0.006,-0.010,-0.002,-222668
2.071617167,448891849,3.266,-9.094,-1.000,-0.008,0.002,0.000,-222222
2.071698292,448897070,3.227,-9.137,-1.000,-0.008,0.002,0.000,-222626
2.07177175,448899293,3.227,-9.137,-1.000,0.008,-0.004,0.008,-221667
2.071849667,448904514,3.227,-9.137,-1.000,0.010,0.006,0.008,-222742
2.071923958,448908735,3.227,-9.137,-1.000,-0.004,-0.006,0.010,-222022
2.072004292,448912956,3.227,-9.137,-1.000,-0.008,-0.008,-0.002,-222906
2.072076167,448917177,3.227,-9.137,-1.000,0.010,0.000,0.000,-223079
2.072150125,448921398,3.227,-9.137,-1.000,-0.006,0.000,0.008,-222175
2.072260125,448924619,3.191,-9.176,-1.000,-0.006,0.000,0.008,-222284
2.072332667,448926840,3.191,-9.176,-1.000,-0.004,0.008,0.014,-221752
2.072415667,448932061,3.191,-9.176,-1.000,0.008,0.008,0.006,-223304
2.072487625,448936282,3.191,-9.176,-1.000,0.002,0.000,0.008,-222297
2.072563625,448941503,3.191,-9.176,-1.000,-0.006,0.006,0.004,-223806
2.072641167,448945724,3.191,-9.176,-1.000,0.004,-0.012,-0.014,-222154
2.0727165,448949945,3.191,-9.176,-1.000,0.000,-0.014,-0.002,-222399
2.072795875,448954166,3.191,-9.133,-1.039,0.000,-0.014,-0.002,-222283
2.072868333,448956387,3.191,-9.133,-1.039,0.006,0.004,0.006,-222489
2.07295475,448961608,3.191,-9.133,-1.039,-0.004,-0.004,0.006,-222125
2.073035,448965829,3.191,-9.133,-1.039,-0.002,-0.010,-0.002,-220834
2.07311325,448970050,3.191,-9.133,-1.039,0.000,-0.012,0.004,-222579
2.073379083,448974271,3.191,-9.133,-1.039,-0.006,0.002,0.008,-221935
2.073451542,448979493,3.227,-9.098,-0.961,-0.006,0.002,0.008,-221779
2.073531167,448981714,3.227,-9.098,-0.961,-0.002,-0.002,0.012,-222373
2.07360375,448986935,3.227,-9.098,-0.961,0.000,0.000,0.002,-222305
2.073685875,448991156,3.227,-9.098,-0.961,-0.002,-0.008,-0.010,-222539
2.073760792,448997377,3.227,-9.098,-0.961,-0.004,0.002,-0.004,-222110
2.073839958,449001598,3.227,-9.098,-0.961,-0.002,0.006,-0.004,-222112
2.073912917,449005819,3.227,-9.098,-0.961,0.004,-0.006,0.004,-221779
2.073987833,449010040,3.191,-9.094,-1.000,0.004,-0.006,0.004,-222714
2.074062792,449013261,3.191,-9.094,-1.000,-0.010,0.000,0.008,-222071
2.074136292,449018482,3.191,-9.094,-1.000,-0.012,0.004,0.004,-222131
2.074213458,449021703,3.191,-9.094,-1.000,0.010,-0.002,0.000,-221449
2.074286917,449024924,3.191,-9.094,-1.000,0.012,-0.004,0.000,-222048
2.074365667,449029146,3.191,-9.094,-1.000,-0.004,-0.002,0.000,-221344
2.074438625,449033367,3.191,-9.094,-1.000,0.000,0.002,-0.008,-221954
2.074515583,449037588,3.266,-9.094,-1.000,0.000,0.002,-0.008,-222510
2.074589833,449040809,3.266,-9.094,-1.000,0.006,-0.012,0.006,-222167
2.074663,449045030,3.266,-9.094,-1.000,0.004,0.010,0.004,-222225
2.0747415,449049251,3.266,-9.094,-1.000,0.000,0.002,-0.004,-222095
2.074813208,449053472,3.266,-9.094,-1.000,0.010,0.002,0.010,-222283
2.074891458,449058693,3.266,-9.094,-1.000,-0.008,-0.006,0.012,-222115
2.074964083,449062914,3.266,-9.094,-1.000,-0.004,0.002,0.006,-222463
2.075043708,449067135,3.227,-9.098,-1.000,-0.004,0.002,0.006,-222716
2.075118167,449069356,3.227,-9.098,-1.000,0.000,-0.004,-0.004,-221972
2.075196792,449074577,3.227,-9.098,-1.000,-0.002,0.002,-0.004,-222374
2.075275167,449078798,3.227,-9.098,-1.000,-0.002,0.008,0.008,-222786
2.075353208,449082019,3.227,-9.098,-1.000,-0.002,-0.010,0.000,-221477
2.075446,449086240,3.227,-9.098,-1.000,-0.004,-0.002,-0.004,-222925
2.075520458,449090461,3.227,-9.098,-1.000,0.002,-0.008,0.008,-221633
2.075597833,449094682,3.266,-9.094,-1.000,0.002,-0.008,0.008,-222098
2.075671375,449096903,3.266,-9.094,-1.000,0.000,-0.002,0.004,-221877
2.075747833,449102124,3.266,-9.094,-1.000,0.000,0.002,-0.002,-222276
2.075821458,449106345,3.266,-9.094,-1.000,0.012,-0.004,0.004,-221821
2.07589725,449109566,3.266,-9.094,-1.000,-0.006,-0.002,0.006,-222673
2.075975375,449113787,3.266,-9.094,-1.000,0.010,0.008,0.004,-223547
2.076048375,449118008,3.266,-9.094,-1.000,-0.008,0.008,0.004,-221833
2.076125167,449122229,3.191,-9.137,-0.922,-0.008,0.008,0.004,-221901
2.076199958,449124450,3.191,-9.137,-0.922,0.010,-0.004,-0.018,-222254
2.07629675,449129671,3.191,-9.137,-0.922,0.002,0.002,-0.002,-222001
2.076388792,449133892,3.191,-9.137,-0.922,0.002,0.008,0.006,-221957
2.076482458,449138113,3.191,-9.137,-0.922,0.000,-0.002,-0.004,-222112
2.076573875,449142335,3.191,-9.137,-0.922,-0.002,0.008,-0.012,-221696
2.076649167,449147555,3.191,-9.137,-0.922,0.002,-0.002,0.006,-222313
2.076727375,449151776,3.227,-9.137,-0.961,0.002,-0.002,0.006,-222142
2.076801917,449154997,3.227,-9.137,-0.961,0.010,0.004,-0.008,-222545
2.076894708,449161218,3.227,-9.137,-0.961,0.004,-0.008,-0.016,-222668
2.076970833,449165439,3.227,-9.137,-0.961,0.008,-0.012,-0.002,-221569
2.077049042,449169660,3.227,-9.137,-0.961,0.004,0.006,-0.002,-222187
2.077124,449174881,3.227,-9.137,-0.961,-0.002,0.000,0.004,-222331
2.077199,449180102,3.227,-9.137,-0.961,-0.002,0.000,0.000,-222022
2.07735825,449184323,3.227,-9.094,-0.922,-0.002,0.000,0.000,-222445
2.077433042,449187544,3.227,-9.094,-0.922,-0.004,0.006,0.008,-221871
2.077686875,449192765,3.227,-9.094,-0.922,-0.004,-0.006,0.000,-222534
2.077782917,449197986,3.227,-9.094,-0.922,0.006,0.000,0.000,-222201
2.100157042,449202207,3.227,-9.094,-0.922,-0.002,-0.002,0.018,-221662
2.100387875,449206428,3.227,-9.094,-0.922,0.008,0.012,0.002,-222419
2.100474375,449210649,3.227,-9.094,-0.922,0.006,-0.004,0.008,-221287
2.100570042,449214870,3.227,-9.137,-0.961,0.006,-0.004,0.008,-222838
2.100675458,449217091,3.227,-9.137,-0.961,-0.002,-0.004,-0.006,-223053
2.100772875,449222313,3.227,-9.137,-0.961,-0.006,0.002,0.012,-222618
2.100846875,449227533,3.227,-9.137,-0.961,0.004,0.002,0.000,-221800
2.100927,449231754,3.227,-9.137,-0.961,-0.010,0.000,-0.006,-222135
2.101011792,449237976,3.227,-9.137,-0.961,0.004,-0.006,-0.012,-221672
2.101104208,449242197,3.227,-9.137,-0.961,0.004,0.006,0.010,-222268
2.101191583,449246418,3.191,-9.133,-0.961,0.004,0.006,0.010,-221991
2.101279542,449248639,3.191,-9.133,-0.961,0.004,0.004,0.006,-221933
2.101374375,449254860,3.191,-9.133,-0.961,-0.002,0.006,0.008,-222077
2.101460958,449259081,3.191,-9.133,-0.961,0.010,-0.002,0.002,-222050
2.101551792,449263302,3.191,-9.133,-0.961,-0.002,0.006,0.010,-221739
2.101637583,449268524,3.191,-9.133,-0.961,0.006,0.008,-0.006,-222904
2.101727167,449272745,3.191,-9.133,-0.961,-0.012,0.004,0.006,-221913
2.101840167,449276966,3.227,-9.137,-1.000,-0.012,0.004,0.006,-221665
2.101928167,449280187,3.227,-9.137,-1.000,-0.004,0.006,-0.002,-222586
2.102051542,449285408,3.227,-9.137,-1.000,-0.002,0.000,-0.008,-222708
2.102123167,449289629,3.227,-9.137,-1.000,0.006,0.000,0.006,-221855
2.10219975,449292850,3.227,-9.137,-1.000,-0.010,0.006,0.010,-221588
2.102272833,449299071,3.227,-9.137,-1.000,0.004,0.002,-0.006,-222039
2.102350958,449303292,3.227,-9.137,-1.000,-0.004,-0.004,0.006,-221823
2.102424792,449307513,3.227,-9.133,-0.922,-0.004,-0.004,0.006,-221941
2.102498917,449309734,3.227,-9.133,-0.922,-0.014,0.010,-0.004,-221857
2.102577583,449314955,3.227,-9.133,-0.922,0.002,-0.004,-0.002,-222050
2.1026515,449320176,3.227,-9.133,-0.922,0.004,-0.006,-0.002,-221763
2.102726875,449324397,3.227,-9.133,-0.922,0.002,0.002,0.004,-222809
2.10282325,449329618,3.227,-9.133,-0.922,-0.006,0.004,-0.006,-222496
2.102927958,449334839,3.227,-9.133,-0.922,-0.002,-0.004,-0.014,-221894
2.103005292,449339060,3.191,-9.094,-0.961,-0.002,-0.004,-0.014,-222122
2.103083208,449341281,3.191,-9.094,-0.961,-0.004,-0.006,0.000,-223226
2.103159708,449345502,3.191,-9.094,-0.961,-0.008,0.004,0.010,-221552
2.103233167,449349723,3.191,-9.094,-0.961,0.006,0.000,-0.004,-222628
2.103311417,449353944,3.191,-9.094,-0.961,0.004,-0.002,-0.008,-222119
2.1033865,449358165,3.191,-9.094,-0.961,-0.008,-0.004,0.008,-221725
2.103466083,449361386,3.191,-9.133,-1.000,-0.008,-0.004,0.008,-222720
2.103540083,449363607,3.191,-9.133,-1.000,-0.004,0.012,0.010,-222234
2.103616417,449367828,3.191,-9.133,-1.000,0.004,-0.004,0.012,-222185
2.103688417,449372049,3.191,-9.133,-1.000,0.006,0.000,0.000,-221266
2.103762625,449377270,3.191,-9.133,-1.000,-0.004,-0.002,0.000,-222344
2.103840333,449381491,3.191,-9.133,-1.000,0.002,0.002,-0.002,-222379
2.103912625,449385712,3.191,-9.133,-1.000,0.006,0.004,0.010,-222404
2.1039895,449389933,3.191,-9.094,-0.961,0.006,0.004,0.010,-221987
2.10406275,449392154,3.191,-9.094,-0.961,0.006,-0.002,0.000,-221612
2.104142417,449398375,3.191,-9.094,-0.961,-0.010,-0.004,0.008,-222164
2.104217292,449402596,3.191,-9.094,-0.961,-0.002,-0.006,0.004,-222511
2.104303667,449406817,3.191,-9.094,-0.961,-0.004,0.000,-0.002,-221473
2.104381625,449412038,3.191,-9.094,-0.961,0.000,0.002,-0.002,-222881
2.10445525,449418259,3.191,-9.094,-0.961,0.006,-0.002,0.000,-222076
2.104532875,449422480,3.266,-9.133,-1.039,0.006,-0.002,0.000,-222174
2.104607125,449425701,3.266,-9.133,-1.039,-0.004,0.000,-0.004,-221561
2.104685792,449430922,3.266,-9.133,-1.039,-0.002,-0.004,0.004,-222189
2.104758792,449435143,3.266,-9.133,-1.039,0.006,-0.004,0.006,-221996
2.104831,449440364,3.266,-9.133,-1.039,0.000,0.000,0.000,-222812
2.104907458,449444585,3.266,-9.133,-1.039,0.000,0.000,0.000,-222089
2.104979,449448806,3.266,-9.133,-1.039,0.000,0.000,0.000,-223224
2.105055375,449452027,3.191,-9.133,-0.961,0.000,0.000,0.000,-222667
2.105127458,449455247,3.191,-9.133,-0.961,0.000,0.000,0.000,-222319
2.105204,449460468,3.191,-9.133,-0.961,0.000,0.000,0.000,-222264
2.105277083,449464689,3.191,-9.133,-0.961,0.000,0.000,0.000,-221991
2.105349125,449467909,3.191,-9.133,-0.961,0.000,0.000,0.000,-222466
2.105427917,449472129,3.191,-9.133,-0.961,0.000,0.000,0.000,-222015
2.105500167,449479349,3.191,-9.133,-0.961,0.000,0.000,0.000,-222262
2.105577292,449483570,3.191,-9.137,-0.922,0.000,0.000,0.000,-222589
2.105650125,449485791,3.191,-9.137,-0.922,0.000,0.000,0.000,-222103
2.105722458,449490011,3.191,-9.137,-0.922,0.000,0.000,0.000,-222394
2.105801083,449495231,3.191,-9.137,-0.922,0.000,0.000,0.000,-222106
2.10587325,449499452,3.191,-9.137,-0.922,0.000,0.000,0.000,-222543
2.105951167,449503672,3.191,-9.137,-0.922,0.000,0.000,0.000,-222015
2.106023625,449507892,3.191,-9.137,-0.922,0.000,0.000,0.000,-222549
2.106099542,449512113,3.191,-9.133,-1.000,0.000,0.000,0.000,-222754
2.106172208,449515334,3.191,-9.133,-1.000,0.000,0.000,0.000,-222124
2.106245833,449520555,3.191,-9.133,-1.000,0.000,0.000,0.000,-222054
2.106324042,449524776,3.191,-9.133,-1.000,0.000,0.000,0.000,-222211
2.106396833,449528997,3.191,-9.133,-1.000,0.000,0.000,0.000,-221645
2.106473708,449533218,3.191,-9.133,-1.000,0.000,0.000,0.000,-221753
2.106546125,449537424,3.191,-9.133,-1.000,0.000,0.000,0.000,-221753
2.106625708,449541644,3.266,-9.094,-0.961,0.000,0.000,0.000,-222593
2.106697625,449543864,3.266,-9.094,-0.961,0.000,0.000,0.000,-223305
2.106770208,449548084,3.266,-9.094,-0.961,0.000,0.000,0.000,-221839
2.106848208,449552305,3.266,-9.094,-0.961,0.000,0.000,0.000,-222332
2.10692025,449556527,3.266,-9.094,-0.961,0.000,0.000,0.000,-222348
2.10699625,449560747,3.266,-9.094,-0.961,0.000,0.000,0.000,-222636
2.107068667,449564968,3.266,-9.094,-0.961,0.000,0.000,0.000,-222384
2.107146208,449570188,3.227,-9.098,-0.961,0.000,0.000,0.000,-222176
2.1072205,449573408,3.227,-9.098,-0.961,0.000,0.000,0.000,-222859
2.107293542,449579629,3.227,-9.098,-0.961,0.000,0.000,0.000,-222558
2.107371167,449583849,3.227,-9.098,-0.961,0.000,0.000,0.000,-221497
2.107443333,449588070,3.227,-9.098,-0.961,0.000,0.000,0.000,-222485
2.107521667,449592290,3.227,-9.098,-0.961,0.000,0.000,0.000,-221743
2.107593792,449597510,3.227,-9.098,-0.961,0.000,0.000,0.000,-222858
2.107666375,449601730,3.227,-9.137,-0.961,0.000,0.000,0.000,-221515
2.107744792,449604951,3.227,-9.137,-0.961,0.000,0.000,0.000,-222419
2.107820875,449610171,3.227,-9.137,-0.961,0.000,0.000,0.000,-221453
2.107909958,449615392,3.227,-9.137,-0.961,0.000,0.000,0.000,-222172
2.107982208,449619613,3.227,-9.137,-0.961,0.000,0.000,0.000,-221522
2.108307083,449623834,3.227,-9.137,-0.961,0.000,0.000,0.000,-222274
2.108380083,449628055,3.227,-9.137,-0.961,0.000,0.000,0.000,-221769
2.108451917,449632275,3.266,-9.133,-0.961,0.000,0.000,0.000,-222053
2.108529458,449635495,3.266,-9.133,-0.961,0.000,0.000,0.000,-222933
2.108601167,449640715,3.266,-9.133,-0.961,0.000,0.000,0.000,-221309
2.108679,449644935,3.266,-9.133,-0.961,0.000,0.000,0.000,-221945
2.108751167,449649156,3.266,-9.133,-0.961,0.000,0.000,0.000,-222184
2.108826833,449653376,3.266,-9.133,-0.961,0.000,0.000,0.000,-222252
2.108899458,449658596,3.266,-9.133,-0.961,0.000,0.000,0.000,-221972
2.108971542,449662816,3.227,-9.098,-0.961,0.000,0.000,0.000,-222019
2.109049208,449666036,3.227,-9.098,-0.961,0.000,0.000,0.000,-222273
2.109121167,449671257,3.227,-9.098,-0.961,0.000,0.000,0.000,-221851
2.109200542,449675478,3.227,-9.098,-0.961,0.000,0.000,0.000,-222407
2.109272083,449680699,3.227,-9.098,-0.961,0.000,0.000,0.000,-221950
2.109344042,449684920,3.227,-9.098,-0.961,0.000,0.000,0.000,-223095
2.109426542,449690141,3.227,-9.098,-0.961,0.000,0.000,0.000,-222221
2.109500292,449694361,3.227,-9.137,-0.961,0.000,0.000,0.000,-221286
2.10958025,449697581,3.227,-9.137,-0.961,0.000,0.000,0.000,-222589
2.109668083,449703801,3.227,-9.137,-0.961,0.000,0.000,0.000,-221509
2.109746375,449708022,3.227,-9.137,-0.961,0.000,0.000,0.000,-221662
2.109823125,449712243,3.227,-9.137,-0.961,0.000,0.000,0.000,-222103
2.109897125,449717464,3.227,-9.137,-0.961,0.000,0.000,0.000,-222676
2.110071792,449721685,3.227,-9.137,-0.961,0.000,0.000,0.000,-221529
2.110143458,449725906,3.227,-9.137,-0.961,0.000,0.000,0.000,-222226
2.110216125,449729126,3.227,-9.137,-0.961,0.000,0.000,0.000,-221752
2.110288125,449736346,3.227,-9.137,-0.961,0.000,0.000,0.000,-222329
2.110360458,449741566,3.227,-9.137,-0.961,0.000,0.000,0.000,-221702
2.110433417,449745787,3.227,-9.137,-0.961,0.000,0.000,0.000,-221598
2.110506625,449751007,3.227,-9.137,-0.961,0.000,0.000,0.000,-220593
2.110583833,449755227,3.227,-9.137,-0.961,0.000,0.000,0.000,-221645
2.110687,449759447,3.227,-9.137,-1.000,0.000,0.000,0.000,-223071
2.110777042,449761668,3.227,-9.137,-1.000,0.000,0.000,0.000,-222082
2.110862833,449766889,3.227,-9.137,-1.000,0.000,0.000,0.000,-223065
2.110936417,449771109,3.227,-9.137,-1.000,0.000,0.000,0.000,-223241
2.111010833,449774330,3.227,-9.137,-1.000,0.000,0.000,0.000,-222312
2.111092417,449779551,3.227,-9.137,-1.000,0.000,0.000,0.000,-222519
2.111184792,449783772,3.227,-9.137,-1.000,0.000,0.000,0.000,-222543
2.111259167,449787992,3.227,-9.094,-0.922,0.000,0.000,0.000,-222613
2.111347667,449790213,3.227,-9.094,-0.922,0.000,0.000,0.000,-221507
2.111423708,449794433,3.227,-9.094,-0.922,0.000,0.000,0.000,-222241
2.111497917,449798653,3.227,-9.094,-0.922,0.000,0.000,0.000,-221652
2.133588042,449801874,3.227,-9.094,-0.922,0.000,0.000,0.000,-222904
2.133663167,449807095,3.227,-9.094,-0.922,0.000,0.000,0.000,-221696
2.1337355,449811315,3.227,-9.094,-0.922,0.000,0.000,0.000,-221961
2.133807833,449817535,3.227,-9.137,-0.961,0.000,0.000,0.000,-222218
2.133880458,449819756,3.227,-9.137,-0.961,0.000,0.000,0.000,-222492
2.136924333,449823976,3.227,-9.137,-0.961,0.000,0.000,0.000,-222617
2.141109542,449828196,3.227,-9.137,-0.961,0.000,0.000,0.000,-222423
2.145362292,449832417,3.227,-9.137,-0.961,0.000,0.000,0.000,-222965
2.150423625,449837638,3.227,-9.137,-0.961,0.000,0.000,0.000,-222127
2.166934125,449841859,3.227,-9.137,-0.961,0.000,0.000,0.000,-222129
2.167010125,449846080,3.152,-9.098,-1.000,0.000,0.000,0.000,-222250
2.167084083,449849303,3.152,-9.098,-1.000,0.000,0.000,0.000,-222025
2.167321,449854523,3.152,-9.098,-1.000,0.000,0.000,0.000,-221299
2.171572167,449858744,3.152,-9.098,-1.000,0.000,0.000,0.000,-222033
2.1757755,449862965,3.152,-9.098,-1.000,0.000,0.000,0.000,-221863
2.200213292,449867186,3.152,-9.098,-1.000,0.000,0.000,0.000,-221686
2.200287083,449871407,3.266,-9.133,-0.961,0.000,0.000,0.000,-222697
2.200359458,449874627,3.266,-9.133,-0.961,0.000,0.000,0.000,-222737
2.200431458,449880848,3.266,-9.133,-0.961,0.000,0.000,0.000,-223026
2.200504083,449885068,3.266,-9.133,-0.961,0.000,0.000,0.000,-222606
2.202224875,449889289,3.266,-9.133,-0.961,0.000,0.000,0.000,-221035
2.206295958,449893510,3.266,-9.133,-0.961,0.000,0.000,0.000,-221596
2.211521875,449898731,3.266,-9.133,-0.961,0.000,0.000,0.000,-222973
2.215857125,449902951,3.227,-9.137,-1.000,0.000,0.000,0.000,-222531
2.217958333,449905172,3.227,-9.137,-1.000,0.000,0.000,0.000,-223178
2.233571042,449910393,3.227,-9.137,-1.000,0.000,0.000,0.000,-221677
2.233643667,449914613,3.227,-9.137,-1.000,0.000,0.000,0.000,-221763
2.233715875,449918834,3.227,-9.137,-1.000,0.000,0.000,0.000,-221532
2.235999667,449923055,3.227,-9.137,-1.000,0.000,0.000,0.000,-222587
2.241162958,449928276,3.227,-9.137,-1.000,0.000,0.000,0.000,-221673
2.245395958,449932497,3.227,-9.172,-1.000,0.000,0.000,0.000,-221725
2.248505042,449935718,3.227,-9.172,-1.000,0.000,0.000,0.000,-222191
2.26689175,449941939,3.227,-9.172,-1.000,0.000,0.000,0.000,-222539
2.266965042,449947160,3.227,-9.172,-1.000,0.000,0.000,0.000,-221550
2.267037542,449951381,3.227,-9.172,-1.000,0.000,0.000,0.000,-222394
2.269543875,449956601,3.227,-9.172,-1.000,0.000,0.000,0.000,-222305
2.273731292,449960822,3.227,-9.172,-1.000,0.000,0.000,0.000,-222476
2.278925958,449966043,3.227,-9.098,-0.961,0.000,0.000,0.000,-222834
2.282107208,449969264,3.227,-9.098,-0.961,0.000,0.000,0.000,-222195
2.300257917,449974484,3.227,-9.098,-0.961,0.000,0.000,0.000,-221499
2.300329667,449978704,3.227,-9.098,-0.961,0.000,0.000,0.000,-222533
2.300401458,449982924,3.227,-9.098,-0.961,0.000,0.000,0.000,-222160
2.302161125,449989144,3.227,-9.098,-0.961,0.000,0.000,0.000,-222676
2.306272042,449993364,3.227,-9.098,-0.961,0.000,0.000,0.000,-221505
2.311446542,449998586,3.191,-9.133,-0.961,0.000,0.000,0.000,-222023
2.314631667,450001806,3.191,-9.133,-0.961,0.000,0.000,0.000,-222905
2.333683625,450007026,3.191,-9.133,-0.961,0.000,0.000,0.000,-222113
2.33383675,450011246,3.191,-9.133,-0.961,0.000,0.000,0.000,-222709
2.333919208,450014467,3.191,-9.133,-0.961,0.000,0.000,0.000,-221983
2.334001042,450019687,3.191,-9.133,-0.961,0.000,0.000,0.000,-222685
2.337850625,450024908,3.191,-9.133,-0.961,0.000,0.000,0.000,-222587
2.342024083,450029129,3.266,-9.133,-0.961,0.000,0.000,0.000,-221800
2.344218792,450031350,3.266,-9.133,-0.961,0.000,0.000,0.000,-222922
2.350385417,450037570,3.266,-9.133,-0.961,0.000,0.000,0.000,-222114
2.366915083,450041791,3.266,-9.133,-0.961,0.000,0.000,0.000,-222711
2.366987875,450046012,3.266,-9.133,-0.961,0.000,0.000,0.000,-222835
2.367060708,450050233,3.266,-9.133,-0.961,0.000,0.000,0.000,-222608
2.367234125,450054454,3.227,-9.098,-0.961,0.000,0.000,0.000,-221880
2.370556417,450057675,3.227,-9.098,-0.961,0.000,0.000,0.000,-222025
2.376698167,450063895,3.227,-9.098,-0.961,0.000,0.000,0.000,-222019
2.381008,450068116,3.227,-9.098,-0.961,0.000,0.000,0.000,-222412
2.385144833,450072337,3.227,-9.098,-0.961,0.000,0.000,0.000,-222488
2.400243417,450077558,3.227,-9.098,-0.961,0.000,0.000,0.000,-222235
2.400315875,450081778,3.227,-9.098,-0.961,0.000,0.000,0.000,-223520
2.400388167,450085998,3.191,-9.133,-1.000,0.000,0.000,0.000,-222159
2.402210625,450089219,3.191,-9.133,-1.000,0.000,0.000,0.000,-222863
2.407240792,450094440,3.191,-9.133,-1.000,0.000,0.000,0.000,-222213
2.412565125,450099661,3.191,-9.133,-1.000,0.000,0.000,0.000,-221611
2.415677333,450102882,3.191,-9.133,-1.000,0.000,0.000,0.000,-221783
2.419906833,450107103,3.191,-9.133,-1.000,0.000,0.000,0.000,-221976
2.433624625,450111324,3.191,-9.133,-1.000,0.000,0.000,0.000,-223127
2.433696125,450115545,3.227,-9.098,-1.000,0.000,0.000,0.000,-222613
2.433768542,450117766,3.227,-9.098,-1.000,0.000,0.000,0.000,-222150
2.43586675,450122987,3.227,-9.098,-1.000,0.000,0.000,0.000,-222100
2.440093667,450127208,3.227,-9.098,-1.000,0.000,0.000,0.000,-223743
2.443305833,450130429,3.227,-9.098,-1.000,0.000,0.000,0.000,-221715
2.447544667,450134650,3.227,-9.098,-1.000,0.000,0.000,0.000,-222404
2.451945458,450138871,3.227,-9.098,-1.000,0.000,0.000,0.000,-222542
2.466886042,450142092,3.191,-9.133,-0.961,0.000,0.000,0.000,-222496
2.466960417,450144315,3.191,-9.133,-0.961,0.000,0.000,0.000,-222234
2.4670465,450148535,3.191,-9.133,-0.961,0.000,0.000,0.000,-221823
2.467131167,450152755,3.191,-9.133,-0.961,0.000,0.000,0.000,-221851
2.470880958,450157975,3.191,-9.133,-0.961,0.000,0.000,0.000,-222410
2.475085,450162195,3.191,-9.133,-0.961,0.000,0.000,0.000,-222245
2.479271417,450166415,3.191,-9.133,-0.961,0.000,0.000,0.000,-222540
2.482418417,450169635,3.191,-9.133,-0.961,0.000,0.000,0.000,-221858
2.484711875,450171855,3.191,-9.133,-0.961,0.000,0.000,0.000,-221025
2.500242292,450176075,3.191,-9.133,-0.961,0.000,0.000,0.000,-222709
2.500314833,450180295,3.191,-9.133,-0.961,0.000,0.000,0.000,-221667
2.500387,450185517,3.191,-9.133,-0.961,0.000,0.000,0.000,-221646
2.502623417,450189738,3.191,-9.133,-0.961,0.000,0.000,0.000,-222537
2.506803042,450193958,3.191,-9.133,-0.961,0.000,0.000,0.000,-222371
2.510986208,450198179,3.227,-9.137,-1.000,0.000,0.000,0.000,-222721
2.513190708,450200400,3.227,-9.137,-1.000,0.000,0.000,0.000,-222946
2.533547042,450205621,3.227,-9.137,-1.000,0.000,0.000,0.000,-222690
2.533620417,450209842,3.227,-9.137,-1.000,0.000,0.000,0.000,-222991
2.533692208,450213063,3.227,-9.137,-1.000,0.000,0.000,0.000,-221383
2.533770208,450218283,3.227,-9.137,-1.000,0.000,0.000,0.000,-222814
2.535400583,450222504,3.227,-9.137,-1.000,0.000,0.000,0.000,-224017
2.538634167,450225726,3.227,-9.137,-1.000,0.000,0.000,0.000,-221901
2.543832292,450230948,3.227,-9.137,-1.000,0.000,0.000,0.000,-222479
2.548068083,450235168,3.227,-9.137,-1.000,0.000,0.000,0.000,-221823
2.566879792,450240389,3.227,-9.137,-1.000,0.000,0.000,0.000,-222856
2.566961458,450244610,3.227,-9.137,-1.000,0.000,0.000,0.000,-221577
2.56704125,450250830,3.227,-9.137,-1.000,0.000,0.000,0.000,-223313
2.568047792,450255051,3.227,-9.098,-1.000,0.000,0.000,0.000,-222467
2.570086208,450257272,3.227,-9.098,-1.000,0.000,0.000,0.000,-222613
2.575354667,450262493,3.227,-9.098,-1.000,0.000,0.000,0.000,-222244
2.580555792,450267713,3.227,-9.098,-1.000,0.000,0.000,0.000,-222053
2.600271958,450271934,3.227,-9.098,-1.000,0.000,0.000,0.000,-222055
2.600352542,450277155,3.227,-9.098,-1.000,0.000,0.000,0.000,-222749
2.600437125,450281376,3.227,-9.098,-1.000,0.000,0.000,0.000,-222432
2.600523875,450285596,3.227,-9.098,-0.961,0.000,0.000,0.000,-222273
2.600639917,450287817,3.227,-9.098,-0.961,0.000,0.000,0.000,-221707
2.604865042,450292038,3.227,-9.098,-0.961,0.000,0.000,0.000,-222189
2.609049917,450296258,3.227,-9.098,-0.961,0.000,0.000,0.000,-222943
2.613285167,450300479,3.227,-9.098,-0.961,0.000,0.000,0.000,-222986
2.633527458,450305699,3.227,-9.098,-0.961,0.000,0.000,0.000,-223658
2.633601083,450309920,3.227,-9.098,-0.961,0.000,0.000,0.000,-222276
2.633675,450313141,3.191,-9.094,-1.039,0.000,0.000,0.000,-222415
2.633749375,450315362,3.191,-9.094,-1.039,0.000,0.000,0.000,-221231
2.633823417,450320583,3.191,-9.094,-1.039,0.000,0.000,0.000,-223032
2.637657833,450324803,3.191,-9.094,-1.039,0.000,0.000,0.000,-222086
2.642900167,450330023,3.191,-9.094,-1.039,0.000,0.000,0.000,-222869
2.647159125,450334244,3.191,-9.094,-1.039,0.000,0.000,0.000,-222610
2.66688725,450338464,3.191,-9.094,-1.039,0.000,0.000,0.000,-222259
2.666960292,450342685,3.227,-9.098,-0.961,0.000,0.000,0.000,-223223
2.667033167,450344906,3.227,-9.098,-0.961,0.000,0.000,0.000,-222574
2.667106792,450350126,3.227,-9.098,-0.961,0.000,0.000,0.000,-222457
2.667179625,450354346,3.227,-9.098,-0.961,0.000,0.000,0.000,-222859
2.6724055,450359567,3.227,-9.098,-0.961,0.000,0.000,0.000,-222825
2.676678958,450363788,3.227,-9.098,-0.961,0.000,0.000,0.000,-222565
2.681899417,450369008,3.227,-9.098,-0.961,0.000,0.000,0.000,-222987
2.700289917,450373228,3.227,-9.098,-1.000,0.000,0.000,0.000,-222284
2.70036475,450376449,3.227,-9.098,-1.000,0.000,0.000,0.000,-221956
2.700437708,450382670,3.227,-9.098,-1.000,0.000,0.000,0.000,-222743
2.700697333,450387890,3.227,-9.098,-1.000,0.000,0.000,0.000,-222341
2.706042667,450393111,3.227,-9.098,-1.000,0.000,0.000,0.000,-222592
2.71122525,450398332,3.191,-9.094,-1.039,0.000,0.000,0.000,-222085
2.714516125,450401553,3.191,-9.094,-1.039,0.000,0.000,0.000,-222558
2.73364825,450406774,3.191,-9.094,-1.039,0.000,0.000,0.000,-222588
2.733729042,450410995,3.191,-9.094,-1.039,0.000,0.000,0.000,-222578
2.733805542,450416215,3.191,-9.094,-1.039,0.000,0.000,0.000,-223137
2.733879458,450420436,3.191,-9.094,-1.039,0.000,0.000,0.000,-222027
2.7385625,450425657,3.191,-9.094,-1.039,0.000,0.000,0.000,-222946
2.742741417,450429878,3.266,-9.133,-0.961,0.000,0.000,0.000,-222253
2.74591175,450433098,3.266,-9.133,-0.961,0.000,0.000,0.000,-222578
2.766939,450439319,3.266,-9.133,-0.961,0.000,0.000,0.000,-223182
2.76702275,450443539,3.266,-9.133,-0.961,0.000,0.000,0.000,-223005
2.767108625,450447759,3.266,-9.133,-0.961,0.000,0.000,0.000,-222756
2.767182458,450451979,3.266,-9.133,-0.961,0.000,0.000,0.000,-222307
2.770066792,450457199,3.266,-9.133,-0.961,0.000,0.000,0.000,-222724
2.774298208,450461419,3.227,-9.137,-1.000,0.000,0.000,0.000,-221862
2.777498542,450464640,3.227,-9.137,-1.000,0.000,0.000,0.000,-222483
2.783681958,450470861,3.227,-9.137,-1.000,0.000,0.000,0.000,-223128
2.800229792,450475082,3.227,-9.137,-1.000,0.000,0.000,0.000,-222687
2.800313917,450479303,3.227,-9.137,-1.000,0.000,0.000,0.000,-222140
2.800409083,450483524,3.227,-9.137,-1.000,0.000,0.000,0.000,-222936
2.800546875,450487744,3.227,-9.137,-1.000,0.000,0.000,0.000,-221953
2.803850417,450490965,3.227,-9.137,-0.961,0.000,0.000,0.000,-223294
2.811144792,450498185,3.227,-9.137,-0.961,0.000,0.000,0.000,-222773
2.815276917,450502406,3.227,-9.137,-0.961,0.000,0.000,0.000,-221874
2.833645792,450506627,3.227,-9.137,-0.961,0.000,0.000,0.000,-222454
2.833720917,450510847,3.227,-9.137,-0.961,0.000,0.000,0.000,-222066
2.833793625,450516068,3.227,-9.137,-0.961,0.000,0.000,0.000,-222406
2.833867125,450520288,3.227,-9.098,-0.961,0.000,0.000,0.000,-222073
2.836341417,450523510,3.227,-9.098,-0.961,0.000,0.000,0.000,-222705
2.841603833,450528731,3.227,-9.098,-0.961,0.000,0.000,0.000,-222687
2.845804042,450532951,3.227,-9.098,-0.961,0.000,0.000,0.000,-222173
2.857248208,450538171,3.227,-9.098,-0.961,0.000,0.000,0.000,-222245
2.866898542,450542392,3.227,-9.098,-0.961,0.000,0.000,0.000,-222451
2.866973,450546613,3.227,-9.098,-0.961,0.000,0.000,0.000,-223438
2.867045917,450550834,3.227,-9.137,-0.961,0.000,0.000,0.000,-222240
2.8671185,450553054,3.227,-9.137,-0.961,0.000,0.000,0.000,-223086
2.872141125,450559274,3.227,-9.137,-0.961,0.000,0.000,0.000,-222389
2.87635675,450563495,3.227,-9.137,-0.961,0.000,0.000,0.000,-222838
2.880610667,450567715,3.227,-9.137,-0.961,0.000,0.000,0.000,-222219
2.900209292,450571936,3.227,-9.137,-0.961,0.000,0.000,0.000,-223330
2.900281583,450576157,3.227,-9.137,-0.961,0.000,0.000,0.000,-222824
2.900353625,450581378,3.227,-9.137,-0.961,0.000,0.000,0.000,-222015
2.900425667,450584602,3.227,-9.137,-0.961,0.000,0.000,0.000,-222966
2.903697542,450590822,3.227,-9.137,-0.961,0.000,0.000,0.000,-222518
2.907924917,450595043,3.227,-9.137,-0.961,0.000,0.000,0.000,-222408
2.91211875,450599263,3.227,-9.137,-0.961,0.000,0.000,0.000,-222158
2.916294583,450603484,3.227,-9.137,-0.961,0.000,0.000,0.000,-222493
2.933553583,450608705,3.227,-9.137,-0.961,0.000,0.000,0.000,-222614
2.93363425,450612925,3.227,-9.137,-1.000,0.000,0.000,0.000,-223065
2.933714292,450616146,3.227,-9.137,-1.000,0.000,0.000,0.000,-222619
2.935351458,450622369,3.227,-9.137,-1.000,0.000,0.000,0.000,-222478
2.939512542,450626590,3.227,-9.137,-1.000,0.000,0.000,0.000,-222139
2.942693042,450629811,3.227,-9.137,-1.000,0.000,0.000,0.000,-222589
2.94701575,450634032,3.227,-9.137,-1.000,0.000,0.000,0.000,-222031
2.966882708,450638253,3.227,-9.137,-1.000,0.000,0.000,0.000,-222934
2.966962958,450642474,3.227,-9.137,-1.000,0.000,0.000,0.000,-222384
2.967043917,450645695,3.227,-9.137,-1.000,0.000,0.000,0.000,-222947
2.967123,450650916,3.227,-9.137,-1.000,0.000,0.000,0.000,-222328
2.968027542,450655137,3.227,-9.137,-1.000,0.000,0.000,0.000,-222538
2.973242458,450660358,3.227,-9.137,-1.000,0.000,0.000,0.000,-222299
2.977451167,450664579,3.227,-9.137,-1.000,0.000,0.000,0.000,-222790
2.98162825,450668800,3.227,-9.137,-1.000,0.000,0.000,0.000,-223206
3.000266792,450673021,3.227,-9.137,-0.961,0.000,0.000,0.000,-223056
3.000340917,450676242,3.227,-9.137,-0.961,0.000,0.000,0.000,-222742
3.00041325,450681462,3.227,-9.137,-0.961,0.000,0.000,0.000,-222201
3.000486292,450685682,3.227,-9.137,-0.961,0.000,0.000,0.000,-222624
3.003772375,450690902,3.227,-9.137,-0.961,0.000,0.000,0.000,-222016
3.008027625,450695123,3.227,-9.137,-0.961,0.000,0.000,0.000,-221789
3.01315575,450700344,3.227,-9.137,-0.961,0.000,0.000,0.000,-222319
3.033576875,450704565,3.227,-9.137,-1.000,0.000,0.000,0.000,-223214
3.033651417,450707786,3.227,-9.137,-1.000,0.000,0.000,0.000,-222020
3.033725375,450713006,3.227,-9.137,-1.000,0.000,0.000,0.000,-222212
3.033801583,450718226,3.227,-9.137,-1.000,0.000,0.000,0.000,-222260
3.035267667,450722447,3.227,-9.137,-1.000,0.000,0.000,0.000,-222540
3.040471625,450727668,3.227,-9.137,-1.000,0.000,0.000,0.000,-222453
3.044689542,450731889,3.227,-9.137,-1.000,0.000,0.000,0.000,-221511
3.0669555,450737109,3.227,-9.137,-1.000,0.000,0.000,0.000,-222477
3.067032125,450739330,3.227,-9.137,-1.000,0.000,0.000,0.000,-222028
3.067106208,450743551,3.227,-9.137,-1.000,0.000,0.000,0.000,-221627
3.067179583,450748772,3.227,-9.137,-1.000,0.000,0.000,0.000,-221912
3.067253083,450751993,3.227,-9.137,-1.000,0.000,0.000,0.000,-222497
3.070111917,450757214,3.227,-9.137,-1.000,0.000,0.000,0.000,-223374
3.074378,450761435,3.227,-9.137,-1.000,0.000,0.000,0.000,-223535
3.078468417,450765656,3.191,-9.094,-1.000,0.000,0.000,0.000,-222453
3.100237208,450768877,3.191,-9.094,-1.000,0.000,0.000,0.000,-222619
3.1003105,450774097,3.191,-9.094,-1.000,0.000,0.000,0.000,-222858
3.100383125,450779318,3.191,-9.094,-1.000,0.000,0.000,0.000,-222963
3.100456,450783538,3.191,-9.094,-1.000,0.000,0.000,0.000,-223336
3.100577792,450787759,3.191,-9.094,-1.000,0.000,0.000,0.000,-222579
3.104786875,450791980,3.191,-9.094,-1.000,0.000,0.000,0.000,-221910
3.10900625,450796200,3.227,-9.098,-1.000,0.000,0.000,0.000,-222979
3.111237083,450798421,3.227,-9.098,-1.000,0.000,0.000,0.000,-222514
3.133571542,450803642,3.227,-9.098,-1.000,0.000,0.000,0.000,-221415
3.133645167,450807863,3.227,-9.098,-1.000,0.000,0.000,0.000,-222697
3.133718542,450811084,3.227,-9.098,-1.000,0.000,0.000,0.000,-222844
3.133791708,450815306,3.227,-9.098,-1.000,0.000,0.000,0.000,-222303
3.133864792,450820526,3.227,-9.098,-1.000,0.000,0.000,0.000,-222350
3.13655175,450823746,3.227,-9.098,-0.961,0.000,0.000,0.000,-223133
3.140769125,450827967,3.227,-9.098,-0.961,0.000,0.000,0.000,-221902
3.145007083,450832187,3.227,-9.137,-1.000,0.000,0.000,0.000,-222176
3.166880583,450838407,3.227,-9.137,-1.000,0.000,0.000,0.000,-222851
3.166953042,450842628,3.227,-9.137,-1.000,0.000,0.000,0.000,-222229
3.167024625,450846849,3.227,-9.137,-1.000,0.000,0.000,0.000,-222433
3.167095208,450851070,3.227,-9.137,-1.000,0.000,0.000,0.000,-223085
3.168156917,450855291,3.227,-9.137,-1.000,0.000,0.000,0.000,-221716
3.17341575,450860512,3.227,-9.055,-0.961,0.000,0.000,0.000,-222454
3.1766315,450863733,3.227,-9.055,-0.961,0.000,0.000,0.000,-223136
3.181908625,450868954,3.227,-9.055,-0.961,0.000,0.000,0.000,-221929
3.187011125,450874174,3.227,-9.055,-0.961,0.000,0.000,0.000,-222335
3.200212583,450878394,3.227,-9.055,-0.961,0.000,0.000,0.000,-222422
3.200286292,450882615,3.227,-9.055,-0.961,0.000,0.000,0.000,-223475
3.200360083,450886836,3.227,-9.055,-0.961,0.000,0.000,0.000,-221793
3.202878208,450890057,3.227,-9.137,-0.961,0.000,0.000,0.000,-222803
3.206160667,450893277,3.227,-9.137,-0.961,0.000,0.000,0.000,-223488
3.212387333,450899497,3.227,-9.137,-0.961,0.000,0.000,0.000,-221549
3.21671225,450903717,3.227,-9.137,-0.961,0.000,0.000,0.000,-222492
3.233570458,450907937,3.227,-9.137,-0.961,0.000,0.000,0.000,-221856
3.233644125,450912157,3.227,-9.137,-0.961,0.000,0.000,0.000,-222477
3.233716208,450916378,3.227,-9.137,-0.961,0.000,0.000,0.000,-222945
3.234518708,450921599,3.227,-9.098,-1.000,0.000,0.000,0.000,-222305
3.237701083,450924820,3.227,-9.098,-1.000,0.000,0.000,0.000,-222763
3.243959542,450931041,3.227,-9.098,-1.000,0.000,0.000,0.000,-222844
3.248152833,450935262,3.227,-9.098,-1.000,0.000,0.000,0.000,-223270
3.252283042,450939483,3.227,-9.098,-1.000,0.000,0.000,0.000,-222258
3.266931917,450943703,3.227,-9.098,-1.000,0.000,0.000,0.000,-222237
3.267005292,450948924,3.227,-9.098,-1.000,0.000,0.000,0.000,-221936
3.267078667,450953145,3.227,-9.137,-0.961,0.000,0.000,0.000,-223169
3.26926475,450956365,3.227,-9.137,-0.961,0.000,0.000,0.000,-222163
3.275482708,450962585,3.227,-9.137,-0.961,0.000,0.000,0.000,-222857
3.279655083,450966805,3.227,-9.137,-0.961,0.000,0.000,0.000,-222805
3.28387025,450971026,3.227,-9.137,-0.961,0.000,0.000,0.000,-222722
3.300437,450976247,3.227,-9.137,-0.961,0.000,0.000,0.000,-223252
3.300521333,450980468,3.227,-9.137,-0.961,0.000,0.000,0.000,-222763
3.300604375,450984688,3.227,-9.172,-1.000,0.000,0.000,0.000,-222840
3.30072825,450987909,3.227,-9.172,-1.000,0.000,0.000,0.000,-222481
3.306097833,450993130,3.227,-9.172,-1.000,0.000,0.000,0.000,-222734
3.312272792,450999351,3.227,-9.172,-1.000,0.000,0.000,0.000,-222910
3.316484333,451003572,3.227,-9.172,-1.000,0.000,0.000,0.000,-222026
3.320590542,451007793,3.227,-9.172,-1.000,0.000,0.000,0.000,-221430
3.333557542,451012014,3.227,-9.172,-1.000,0.000,0.000,0.000,-221931
3.33363,451016235,3.266,-9.133,-0.961,0.000,0.000,0.000,-222380
3.333700917,451018455,3.266,-9.133,-0.961,0.000,0.000,0.000,-221892
3.336531875,451023676,3.266,-9.133,-0.961,0.000,0.000,0.000,-222551
3.3408045,451027897,3.266,-9.133,-0.961,0.000,0.000,0.000,-222358
3.3440405,451031117,3.266,-9.133,-0.961,0.000,0.000,0.000,-222372
3.348233292,451035337,3.266,-9.133,-0.961,0.000,0.000,0.000,-222667
3.35245775,451039558,3.266,-9.133,-0.961,0.000,0.000,0.000,-221983
3.366898458,451043779,3.227,-9.137,-0.961,0.000,0.000,0.000,-222099
3.366985917,451045999,3.227,-9.137,-0.961,0.000,0.000,0.000,-223373
3.367072458,451051220,3.227,-9.137,-0.961,0.000,0.000,0.000,-222750
3.368354708,451055440,3.227,-9.137,-0.961,0.000,0.000,0.000,-221995
3.372561417,451059661,3.227,-9.137,-0.961,0.000,0.000,0.000,-222764
3.376730667,451063881,3.227,-9.137,-0.961,0.000,0.000,0.000,-222073
3.382002958,451069101,3.227,-9.137,-0.961,0.000,0.000,0.000,-221493
3.386155333,451073321,3.227,-9.137,-0.961,0.000,0.000,0.000,-222194
3.400237125,451076541,3.227,-9.137,-0.961,0.000,0.000,0.000,-223433
3.400309583,451082761,3.227,-9.137,-0.961,0.000,0.000,0.000,-222136
3.400380917,451086982,3.227,-9.137,-0.961,0.000,0.000,0.000,-223351
3.403096167,451090203,3.227,-9.137,-0.961,0.000,0.000,0.000,-222522
3.407323958,451094423,3.227,-9.137,-0.961,0.000,0.000,0.000,-222173
3.411546,451098643,3.227,-9.137,-0.961,0.000,0.000,0.000,-222223
3.415759625,451102863,3.191,-9.094,-1.000,0.000,0.000,0.000,-222212
3.418934792,451106084,3.191,-9.094,-1.000,0.000,0.000,0.000,-222582
3.433583125,451111305,3.191,-9.094,-1.000,0.000,0.000,0.000,-222335
3.433657042,451115526,3.191,-9.094,-1.000,0.000,0.000,0.000,-222326
3.433729042,451119747,3.191,-9.094,-1.000,0.000,0.000,0.000,-221863
3.436843375,451123967,3.191,-9.094,-1.000,0.000,0.000,0.000,-222893
3.441096917,451128187,3.191,-9.094,-1.000,0.000,0.000,0.000,-222769
3.4453065,451132408,3.227,-9.137,-0.961,0.000,0.000,0.000,-222978
3.448534875,451135628,3.227,-9.137,-0.961,0.000,0.000,0.000,-222685
3.466924292,451141849,3.227,-9.137,-0.961,0.000,0.000,0.000,-222266
3.466998042,451146069,3.227,-9.137,-0.961,0.000,0.000,0.000,-222592
3.467074875,451150290,3.227,-9.137,-0.961,0.000,0.000,0.000,-222675
3.467303667,451154510,3.227,-9.137,-0.961,0.000,0.000,0.000,-221636
3.472640792,451159731,3.227,-9.137,-0.961,0.000,0.000,0.000,-222355
3.476866,451163952,3.227,-9.098,-1.000,0.000,0.000,0.000,-222502
3.47908125,451166173,3.227,-9.098,-1.000,0.000,0.000,0.000,-223671
3.484229458,451171393,3.227,-9.098,-1.000,0.000,0.000,0.000,-222050
3.500272708,451175614,3.227,-9.098,-1.000,0.000,0.000,0.000,-222619
3.500345083,451179835,3.227,-9.098,-1.000,0.000,0.000,0.000,-222680
3.500417667,451184056,3.227,-9.098,-1.000,0.000,0.000,0.000,-222029
3.502083167,451189276,3.227,-9.098,-1.000,0.000,0.000,0.000,-222225
3.506413333,451193498,3.227,-9.098,-1.000,0.000,0.000,0.000,-223009
3.509556583,451196719,3.227,-9.098,-1.000,0.000,0.000,0.000,-222816
3.51575025,451202940,3.227,-9.098,-1.000,0.000,0.000,0.000,-221522
3.533834417,451207161,3.227,-9.098,-1.000,0.000,0.000,0.000,-223059
3.533922625,451210382,3.227,-9.098,-1.000,0.000,0.000,0.000,-223203
3.534009375,451214603,3.227,-9.098,-1.000,0.000,0.000,0.000,-221862
3.534095875,451218823,3.227,-9.098,-1.000,0.000,0.000,0.000,-221671
3.53598625,451223044,3.191,-9.133,-0.961,0.000,0.000,0.000,-222582
3.538117667,451225265,3.191,-9.133,-0.961,0.000,0.000,0.000,-222285
3.543408833,451230485,3.191,-9.133,-0.961,0.000,0.000,0.000,-222336
3.547607958,451234706,3.191,-9.133,-0.961,0.000,0.000,0.000,-221950
3.567090708,451238926,3.191,-9.133,-0.961,0.000,0.000,0.000,-221647
3.56717625,451244146,3.191,-9.133,-0.961,0.000,0.000,0.000,-221956
3.567260875,451248367,3.191,-9.133,-0.961,0.000,0.000,0.000,-222734
3.567346125,451252588,3.191,-9.094,-1.000,0.000,0.000,0.000,-223187
3.56761825,451254809,3.191,-9.094,-1.000,0.000,0.000,0.000,-221607
3.574931417,451262030,3.191,-9.094,-1.000,0.000,0.000,0.000,-222645
3.579197833,451266251,3.191,-9.094,-1.000,0.000,0.000,0.000,-222565
3.584291458,451271471,3.191,-9.094,-1.000,0.000,0.000,0.000,-222168
3.600227708,451275692,3.191,-9.094,-1.000,0.000,0.000,0.000,-222151
3.60031225,451280913,3.191,-9.094,-1.000,0.000,0.000,0.000,-222728
3.600395292,451284134,3.305,-9.098,-0.922,0.000,0.000,0.000,-223137
3.60225825,451289354,3.305,-9.098,-0.922,0.000,0.000,0.000,-222107
3.606403125,451293575,3.305,-9.098,-0.922,0.000,0.000,0.000,-221312
3.611597458,451298796,3.305,-9.098,-0.922,0.000,0.000,0.000,-222826
3.615817167,451303016,3.305,-9.098,-0.922,0.000,0.000,0.000,-222376
3.633554,451307237,3.305,-9.098,-0.922,0.000,0.000,0.000,-221607
3.633636292,451311457,3.266,-9.176,-1.000,0.000,0.000,0.000,-222331
3.633718542,451313678,3.266,-9.176,-1.000,0.000,0.000,0.000,-222145
3.633800375,451318899,3.266,-9.176,-1.000,0.000,0.000,0.000,-222853
3.63607025,451323120,3.266,-9.176,-1.000,0.000,0.000,0.000,-222888
3.639250583,451326341,3.266,-9.176,-1.000,0.000,0.000,0.000,-222192
3.643407208,451330562,3.266,-9.176,-1.000,0.000,0.000,0.000,-222295
3.6476315,451334783,3.266,-9.176,-1.000,0.000,0.000,0.000,-222401
3.666912958,451339004,3.227,-9.137,-0.961,0.000,0.000,0.000,-222489
3.666985167,451341224,3.227,-9.137,-0.961,0.000,0.000,0.000,-223616
3.667057667,451346445,3.227,-9.137,-0.961,0.000,0.000,0.000,-222670
3.667151917,451350666,3.227,-9.137,-0.961,0.000,0.000,0.000,-223027
3.667223917,451353886,3.227,-9.137,-0.961,0.000,0.000,0.000,-222110
3.672031875,451359107,3.227,-9.137,-0.961,0.000,0.000,0.000,-222139
3.676244292,451363328,3.227,-9.137,-0.961,0.000,0.000,0.000,-222694
3.6794545,451366549,3.227,-9.098,-1.000,0.000,0.000,0.000,-222688
3.7002265,451371770,3.227,-9.098,-1.000,0.000,0.000,0.000,-222055
3.70030725,451375990,3.227,-9.098,-1.000,0.000,0.000,0.000,-222685
3.700387042,451381211,3.227,-9.098,-1.000,0.000,0.000,0.000,-222697
3.700466542,451385432,3.227,-9.098,-1.000,0.000,0.000,0.000,-221726
3.702554708,451389653,3.227,-9.098,-1.000,0.000,0.000,0.000,-222825
3.706796875,451393874,3.266,-9.133,-1.000,0.000,0.000,0.000,-222188
3.709983833,451397095,3.266,-9.133,-1.000,0.000,0.000,0.000,-222273
3.71613675,451403316,3.266,-9.133,-1.000,0.000,0.000,0.000,-222528
3.733548625,451408537,3.266,-9.133,-1.000,0.000,0.000,0.000,-222084
3.733630833,451412758,3.266,-9.133,-1.000,0.000,0.000,0.000,-222291
3.733713125,451417978,3.266,-9.133,-1.000,0.000,0.000,0.000,-222053
3.735115208,451422198,3.266,-9.133,-1.000,0.000,0.000,0.000,-221272
3.739361833,451426419,3.227,-9.133,-0.922,0.000,0.000,0.000,-223064
3.741543792,451428639,3.227,-9.133,-0.922,0.000,0.000,0.000,-221967
3.745779625,451432859,3.227,-9.133,-0.922,0.000,0.000,0.000,-222734
3.766921625,451437080,3.227,-9.133,-0.922,0.000,0.000,0.000,-221952
3.76699575,451441300,3.227,-9.133,-0.922,0.000,0.000,0.000,-222419
3.767068042,451446520,3.227,-9.133,-0.922,0.000,0.000,0.000,-222425
3.767140917,451450741,3.227,-9.133,-0.922,0.000,0.000,0.000,-222874
3.767779125,451454961,3.227,-9.137,-0.961,0.000,0.000,0.000,-222489
3.771017875,451458181,3.227,-9.137,-0.961,0.000,0.000,0.000,-222098
3.777299792,451464401,3.227,-9.137,-0.961,0.000,0.000,0.000,-222209
3.781509333,451468621,3.227,-9.137,-0.961,0.000,0.000,0.000,-222301
3.800225375,451472842,3.227,-9.137,-0.961,0.000,0.000,0.000,-222636
3.800305375,451478062,3.227,-9.137,-0.961,0.000,0.000,0.000,-222645
3.800385042,451482283,3.227,-9.137,-0.961,0.000,0.000,0.000,-223702
3.800464458,451485503,3.227,-9.137,-0.961,0.000,0.000,0.000,-222306
3.801641958,451488724,3.227,-9.137,-0.961,0.000,0.000,0.000,-222825
3.8067865,451493944,3.227,-9.137,-0.961,0.000,0.000,0.000,-222990
3.812004875,451499165,3.227,-9.137,-0.961,0.000,0.000,0.000,-222093
3.815286542,451502385,3.227,-9.137,-0.961,0.000,0.000,0.000,-222871
3.833561208,451506605,3.227,-9.137,-0.961,0.000,0.000,0.000,-222710
3.833634042,451512825,3.227,-9.137,-0.961,0.000,0.000,0.000,-222019
3.833706708,451517046,3.191,-9.133,-0.961,0.000,0.000,0.000,-222297
3.833779208,451520267,3.191,-9.133,-0.961,0.000,0.000,0.000,-221758
3.83840775,451525487,3.191,-9.133,-0.961,0.000,0.000,0.000,-222457
3.842612667,451529707,3.191,-9.133,-0.961,0.000,0.000,0.000,-222427
3.845835958,451532928,3.191,-9.133,-0.961,0.000,0.000,0.000,-222829
3.850992875,451538149,3.191,-9.133,-0.961,0.000,0.000,0.000,-222292
3.866872208,451542369,3.191,-9.133,-0.961,0.000,0.000,0.000,-222128
3.866944625,451546589,3.227,-9.137,-1.000,0.000,0.000,0.000,-222424
3.867016917,451548810,3.227,-9.137,-1.000,0.000,0.000,0.000,-222165
3.867089,451553031,3.227,-9.137,-1.000,0.000,0.000,0.000,-222612
3.870048792,451557252,3.227,-9.137,-1.000,0.000,0.000,0.000,-221711
3.874387458,451561473,3.227,-9.137,-1.000,0.000,0.000,0.000,-222255
3.879602,451566694,3.227,-9.137,-1.000,0.000,0.000,0.000,-222323
3.883735333,451570915,3.227,-9.137,-1.000,0.000,0.000,0.000,-222026
3.90022075,451574135,3.191,-9.133,-0.961,0.000,0.000,0.000,-222152
3.900294625,451576355,3.191,-9.133,-0.961,0.000,0.000,0.000,-223064
3.900367833,451581576,3.191,-9.133,-0.961,0.000,0.000,0.000,-222417
3.900440458,451585797,3.191,-9.133,-0.961,0.000,0.000,0.000,-222202
3.903843,451591017,3.191,-9.133,-0.961,0.000,0.000,0.000,-221671
3.908144375,451595237,3.191,-9.133,-0.961,0.000,0.000,0.000,-222244
3.913359417,451600457,3.191,-9.133,-0.961,0.000,0.000,0.000,-221758
3.933572208,451604677,3.227,-9.098,-0.961,0.000,0.000,0.000,-223416
3.933645083,451607898,3.227,-9.098,-0.961,0.000,0.000,0.000,-221507
3.9337175,451613118,3.227,-9.098,-0.961,0.000,0.000,0.000,-222552
3.933789667,451618340,3.227,-9.098,-0.961,0.000,0.000,0.000,-222222
3.935421917,451622560,3.227,-9.098,-0.961,0.000,0.000,0.000,-222084
3.939617458,451626781,3.227,-9.098,-0.961,0.000,0.000,0.000,-222508
3.943900542,451631002,3.266,-9.094,-0.961,0.000,0.000,0.000,-222664
3.946159917,451633223,3.266,-9.094,-0.961,0.000,0.000,0.000,-222204
3.966890042,451638443,3.266,-9.094,-0.961,0.000,0.000,0.000,-222866
3.966971125,451643663,3.266,-9.094,-0.961,0.000,0.000,0.000,-221995
3.967051583,451648884,3.227,-9.137,-1.000,0.000,0.000,0.000,-222805
3.967132417,451651105,3.227,-9.137,-1.000,0.000,0.000,0.000,-223167
3.968244042,451655326,3.227,-9.137,-1.000,0.000,0.000,0.000,-221947
3.972475708,451659547,3.227,-9.137,-1.000,0.000,0.000,0.000,-222766
3.976673333,451663767,3.227,-9.137,-1.000,0.000,0.000,0.000,-222165
3.9809045,451667988,3.227,-9.137,-1.000,0.000,0.000,0.000,-222349
4.000246167,451673209,3.227,-9.137,-1.000,0.000,0.000,0.000,-222066
4.000336042,451678429,3.191,-9.094,-0.961,0.000,0.000,0.000,-222280
4.000417833,451680650,3.191,-9.094,-0.961,0.000,0.000,0.000,-222238
4.000498292,451684871,3.191,-9.094,-0.961,0.000,0.000,0.000,-221519
4.002017292,451689092,3.191,-9.094,-0.961,0.000,0.000,0.000,-222791
4.007126333,451694312,3.191,-9.094,-0.961,0.000,0.000,0.000,-222800
4.012347958,451699533,3.191,-9.094,-0.961,0.000,0.000,0.000,-222197
4.033583333,451704753,3.191,-9.094,-0.961,0.000,0.000,0.000,-222291
4.033656583,451708973,3.191,-9.094,-0.961,0.000,0.000,0.000,-222411
4.033728167,451711194,3.191,-9.094,-0.961,0.000,0.000,0.000,-222344
4.033799583,451716415,3.191,-9.094,-0.961,0.000,0.000,0.000,-221362
4.033870875,451720636,3.191,-9.094,-0.961,0.000,0.000,0.000,-222545
4.036666,451723856,3.191,-9.094,-0.961,0.000,0.000,0.000,-222663
4.040963,451728076,3.191,-9.094,-0.961,0.000,0.000,0.000,-222631
4.045122958,451732297,3.191,-9.094,-0.961,0.000,0.000,0.000,-222236
4.066863417,451737518,3.191,-9.094,-0.961,0.000,0.000,0.000,-222243
4.066940292,451740739,3.191,-9.094,-0.961,0.000,0.000,0.000,-221990
4.067019167,451745960,3.191,-9.094,-0.961,0.000,0.000,0.000,-223278
4.067100625,451750180,3.191,-9.094,-0.961,0.000,0.000,0.000,-221854
4.067179417,451753401,3.191,-9.094,-0.961,0.000,0.000,0.000,-222005
4.074531208,451761622,3.191,-9.094,-0.961,0.000,0.000,0.000,-222641
4.078651,451765843,3.191,-9.094,-0.961,0.000,0.000,0.000,-221942
4.081929667,451769063,3.227,-9.098,-0.961,0.000,0.000,0.000,-223148
4.1002785,451771285,3.227,-9.098,-0.961,0.000,0.000,0.000,-222042
4.100352083,451776506,3.227,-9.098,-0.961,0.000,0.000,0.000,-221946
4.100424125,451780726,3.227,-9.098,-0.961,0.000,0.000,0.000,-221303
4.100496,451784947,3.227,-9.098,-0.961,0.000,0.000,0.000,-221375
4.103000958,451790167,3.227,-9.098,-0.961,0.000,0.000,0.000,-222964
4.107282417,451794387,3.227,-9.098,-0.961,0.000,0.000,0.000,-222358
4.111430125,451798607,3.191,-9.133,-1.000,0.000,0.000,0.000,-222071
4.114724042,451801827,3.191,-9.133,-1.000,0.000,0.000,0.000,-222506
4.133731667,451807048,3.191,-9.133,-1.000,0.000,0.000,0.000,-222349
4.133813333,451811269,3.191,-9.133,-1.000,0.000,0.000,0.000,-221531
4.133894333,451814491,3.191,-9.133,-1.000,0.000,0.000,0.000,-222207
4.133976375,451820712,3.191,-9.133,-1.000,0.000,0.000,0.000,-222186
4.137825083,451824933,3.191,-9.133,-1.000,0.000,0.000,0.000,-222877
4.142136333,451829154,3.266,-9.133,-0.961,0.000,0.000,0.000,-221753
4.144281,451831374,3.266,-9.133,-0.961,0.000,0.000,0.000,-222361
4.149384,451836580,3.266,-9.133,-0.961,0.000,0.000,0.000,-222361
4.166892167,451841800,3.266,-9.133,-0.961,0.000,0.000,0.000,-222506
4.166964833,451846022,3.266,-9.133,-0.961,0.000,0.000,0.000,-221872
4.16703725,451851243,3.266,-9.133,-0.961,0.000,0.000,0.000,-222732
4.169373917,451856463,3.266,-9.133,-0.961,0.000,0.000,0.000,-222715
4.173621333,451860684,3.266,-9.133,-1.000,0.000,0.000,0.000,-222248
4.175814375,451862905,3.266,-9.133,-1.000,0.000,0.000,0.000,-221920
4.180989375,451868125,3.266,-9.133,-1.000,0.000,0.000,0.000,-221594
4.185175708,451872346,3.266,-9.133,-1.000,0.000,0.000,0.000,-221630
4.200228917,451877567,3.266,-9.133,-1.000,0.000,0.000,0.000,-222137
4.200311667,451882788,3.266,-9.133,-1.000,0.000,0.000,0.000,-222886
4.200392833,451887009,3.266,-9.133,-1.000,0.000,0.000,0.000,-222548
4.204095,451891229,3.266,-9.094,-1.000,0.000,0.000,0.000,-223314
4.207358625,451894452,3.266,-9.094,-1.000,0.000,0.000,0.000,-221639
4.212599833,451899673,3.266,-9.094,-1.000,0.000,0.000,0.000,-221819
4.216728125,451903894,3.266,-9.094,-1.000,0.000,0.000,0.000,-222587
4.219959417,451907115,3.266,-9.094,-1.000,0.000,0.000,0.000,-222091
4.233559417,451911336,3.266,-9.094,-1.000,0.000,0.000,0.000,-221950
4.233644125,451915557,3.266,-9.094,-1.000,0.000,0.000,0.000,-222720
4.233728917,451920778,3.266,-9.133,-1.000,0.000,0.000,0.000,-222800
4.237028875,451923998,3.266,-9.133,-1.000,0.000,0.000,0.000,-222656
4.242119667,451929219,3.266,-9.133,-1.000,0.000,0.000,0.000,-222379
4.247283708,451934440,3.266,-9.133,-1.000,0.000,0.000,0.000,-221842
4.251578917,451938661,3.266,-9.133,-1.000,0.000,0.000,0.000,-221956
4.266900292,451943882,3.266,-9.133,-1.000,0.000,0.000,0.000,-221606
4.266972292,451949103,3.266,-9.133,-1.000,0.000,0.000,0.000,-221915
4.267044042,451953324,3.227,-9.098,-1.000,0.000,0.000,0.000,-221877
4.268445458,451955545,3.227,-9.098,-1.000,0.000,0.000,0.000,-222178
4.272696875,451959766,3.227,-9.098,-1.000,0.000,0.000,0.000,-222596
4.276907542,451963987,3.227,-9.098,-1.000,0.000,0.000,0.000,-222853
4.281108167,451968207,3.227,-9.098,-1.000,0.000,0.000,0.000,-221834
4.28535025,451972428,3.227,-9.098,-1.000,0.000,0.000,0.000,-223046
4.300264333,451976649,3.227,-9.098,-1.000,0.000,0.000,0.000,-223068
4.300336833,451980870,3.191,-9.094,-1.000,0.000,0.000,0.000,-223171
4.300408042,451983090,3.191,-9.094,-1.000,0.000,0.000,0.000,-221765
4.300480292,451987311,3.191,-9.094,-1.000,0.000,0.000,0.000,-220845
4.304441958,451991532,3.191,-9.094,-1.000,0.000,0.000,0.000,-222095
4.308673542,451995753,3.191,-9.094,-1.000,0.000,0.000,0.000,-222720
4.313823458,452000974,3.191,-9.094,-1.000,0.000,0.000,0.000,-222552
4.319055625,452006195,3.227,-9.137,-1.000,0.000,0.000,0.000,-222873
4.333606833,452009416,3.227,-9.137,-1.000,0.000,0.000,0.000,-222689
4.333679292,452014637,3.227,-9.137,-1.000,0.000,0.000,0.000,-222048
4.33479675,452021858,3.227,-9.137,-1.000,0.000,0.000,0.000,-222012
4.339984542,452027078,3.227,-9.137,-1.000,0.000,0.000,0.000,-221834
4.344220167,452031299,3.227,-9.137,-1.000,0.000,0.000,0.000,-222542
4.348436542,452035520,3.227,-9.137,-1.000,0.000,0.000,0.000,-223006
4.353550917,452040741,3.227,-9.137,-1.000,0.000,0.000,0.000,-222737
4.367155792,452043961,3.227,-9.137,-1.000,0.000,0.000,0.000,-222105
4.367320625,452049184,3.227,-9.137,-1.000,0.000,0.000,0.000,-222808
4.367410458,452054405,3.227,-9.137,-1.000,0.000,0.000,0.000,-222716
4.371603417,452058626,3.227,-9.137,-1.000,0.000,0.000,0.000,-222563
4.375744458,452062847,3.227,-9.137,-1.000,0.000,0.000,0.000,-222770
4.379003417,452066068,3.227,-9.137,-1.000,0.000,0.000,0.000,-222518
4.383218708,452070289,3.227,-9.098,-0.961,0.000,0.000,0.000,-222134
4.385358792,452072510,3.227,-9.098,-0.961,0.000,0.000,0.000,-222673
4.400390417,452076731,3.227,-9.098,-0.961,0.000,0.000,0.000,-222562
4.400481125,452081952,3.227,-9.098,-0.961,0.000,0.000,0.000,-223115
4.400571792,452086172,3.227,-9.098,-0.961,0.000,0.000,0.000,-222003
4.40330175,452090393,3.227,-9.098,-0.961,0.000,0.000,0.000,-221557
4.406457833,452093613,3.227,-9.098,-0.961,0.000,0.000,0.000,-221912
4.411746,452098835,3.227,-9.137,-1.000,0.000,0.000,0.000,-222552
4.41397725,452101055,3.227,-9.137,-1.000,0.000,0.000,0.000,-223167
4.418133167,452105276,3.227,-9.137,-1.000,0.000,0.000,0.000,-221735
4.43361675,452109497,3.227,-9.137,-1.000,0.000,0.000,0.000,-222049
4.433688458,452113718,3.227,-9.137,-1.000,0.000,0.000,0.000,-221981
4.43376,452118939,3.227,-9.137,-1.000,0.000,0.000,0.000,-221271
4.436002417,452123160,3.227,-9.133,-0.922,0.000,0.000,0.000,-222056
4.439277917,452126380,3.227,-9.133,-0.922,0.000,0.000,0.000,-222110
4.444522125,452131600,3.227,-9.133,-0.922,0.000,0.000,0.000,-222781
4.449734917,452136821,3.227,-9.133,-0.922,0.000,0.000,0.000,-222290
4.4668805,452141041,3.227,-9.133,-0.922,0.000,0.000,0.000,-222283
4.466969542,452145261,3.227,-9.133,-0.922,0.000,0.000,0.000,-222469
4.467059333,452149483,3.227,-9.133,-0.922,0.000,0.000,0.000,-221225
4.467148458,452153704,3.227,-9.098,-1.000,0.000,0.000,0.000,-222701
4.468986583,452155925,3.227,-9.098,-1.000,0.000,0.000,0.000,-221823
4.474113917,452161145,3.227,-9.098,-1.000,0.000,0.000,0.000,-221642
4.478277167,452165366,3.227,-9.098,-1.000,0.000,0.000,0.000,-222030
4.481516167,452168587,3.227,-9.098,-1.000,0.000,0.000,0.000,-221845
4.485781292,452172807,3.227,-9.098,-1.000,0.000,0.000,0.000,-221372
4.500227917,452177028,3.227,-9.098,-1.000,0.000,0.000,0.000,-222570
4.50031725,452182249,3.227,-9.098,-1.000,0.000,0.000,0.000,-222723
4.500406625,452185470,3.227,-9.098,-1.000,0.000,0.000,0.000,-221989
4.503607417,452190690,3.227,-9.098,-1.000,0.000,0.000,0.000,-222230
4.507764833,452194911,3.227,-9.098,-1.000,0.000,0.000,0.000,-222281
4.512047583,452199132,3.227,-9.098,-1.000,0.000,0.000,0.000,-222153
4.51616925,452203353,3.227,-9.098,-1.000,0.000,0.000,0.000,-222091
4.533572542,452205574,3.227,-9.098,-1.000,0.000,0.000,0.000,-221521
4.5336455,452209794,3.227,-9.098,-1.000,0.000,0.000,0.000,-222820
4.533718458,452214015,3.227,-9.098,-1.000,0.000,0.000,0.000,-222014
4.533790917,452219236,3.227,-9.098,-1.000,0.000,0.000,0.000,-222309
4.537380667,452224457,3.227,-9.098,-1.000,0.000,0.000,0.000,-222516
4.542635875,452229678,3.266,-9.094,-1.000,0.000,0.000,0.000,-222207
4.545818875,452232899,3.266,-9.094,-1.000,0.000,0.000,0.000,-223411
4.566922833,452239119,3.266,-9.094,-1.000,0.000,0.000,0.000,-222467
4.566996167,452243340,3.266,-9.094,-1.000,0.000,0.000,0.000,-221514
4.567068917,452247561,3.266,-9.094,-1.000,0.000,0.000,0.000,-221670
4.567141292,452251782,3.266,-9.094,-1.000,0.000,0.000,0.000,-222496
4.568953208,452256003,3.266,-9.094,-1.000,0.000,0.000,0.000,-221354
4.574198083,452261223,3.191,-9.094,-1.000,0.000,0.000,0.000,-222191
4.577288917,452264444,3.191,-9.094,-1.000,0.000,0.000,0.000,-223079
4.58450425,452271665,3.191,-9.094,-1.000,0.000,0.000,0.000,-222978
4.600450292,452275885,3.191,-9.094,-1.000,0.000,0.000,0.000,-222561
4.60061225,452281106,3.191,-9.094,-1.000,0.000,0.000,0.000,-221654
4.600697792,452285327,3.191,-9.094,-1.000,0.000,0.000,0.000,-221830
4.602514,452289548,3.191,-9.094,-1.000,0.000,0.000,0.000,-221893
4.605702667,452292769,3.227,-9.098,-0.961,0.000,0.000,0.000,-222318
4.607907125,452294989,3.227,-9.098,-0.961,0.000,0.000,0.000,-222279
4.61315125,452300209,3.227,-9.098,-0.961,0.000,0.000,0.000,-222862
4.633588917,452304430,3.227,-9.098,-0.961,0.000,0.000,0.000,-222093
4.633661875,452308650,3.227,-9.098,-0.961,0.000,0.000,0.000,-221884
4.633733125,452312871,3.227,-9.098,-0.961,0.000,0.000,0.000,-222575
4.633804375,452317092,3.227,-9.098,-0.961,0.000,0.000,0.000,-222959
4.635240375,452322313,3.191,-9.094,-1.000,0.000,0.000,0.000,-222585
4.638444708,452325533,3.191,-9.094,-1.000,0.000,0.000,0.000,-222796
4.644619292,452331754,3.191,-9.094,-1.000,0.000,0.000,0.000,-222133
4.648892333,452335975,3.191,-9.094,-1.000,0.000,0.000,0.000,-222187
4.6668745,452340196,3.191,-9.094,-1.000,0.000,0.000,0.000,-222146
4.666956333,452344417,3.191,-9.094,-1.000,0.000,0.000,0.000,-221739
4.667037917,452349638,3.191,-9.094,-1.000,0.000,0.000,0.000,-222261
4.667119708,452353859,3.266,-9.133,-1.000,0.000,0.000,0.000,-222861
4.669889833,452357080,3.266,-9.133,-1.000,0.000,0.000,0.000,-222393
4.674207792,452361301,3.266,-9.133,-1.000,0.000,0.000,0.000,-222378
4.67833425,452365522,3.266,-9.133,-1.000,0.000,0.000,0.000,-222625
4.682711833,452369743,3.266,-9.133,-1.000,0.000,0.000,0.000,-223019
4.700247458,452374963,3.266,-9.133,-1.000,0.000,0.000,0.000,-221726
4.7003195,452379184,3.266,-9.133,-1.000,0.000,0.000,0.000,-222177
4.700394583,452383405,3.227,-9.137,-1.000,0.000,0.000,0.000,-222288
4.700491917,452386625,3.227,-9.137,-1.000,0.000,0.000,0.000,-221013
4.704773583,452391846,3.227,-9.137,-1.000,0.000,0.000,0.000,-221229
4.70990925,452397067,3.227,-9.172,-1.039,0.000,0.000,0.000,-222690
4.712191958,452399288,3.227,-9.172,-1.039,0.000,0.000,0.000,-223264
4.71735925,452404509,3.227,-9.172,-1.039,0.000,0.000,0.000,-222384
4.733544583,452408730,3.227,-9.172,-1.039,0.000,0.000,0.000,-221283
4.733624875,452411950,3.227,-9.172,-1.039,0.000,0.000,0.000,-222013
4.73370475,452416171,3.227,-9.172,-1.039,0.000,0.000,0.000,-221934
4.733784833,452420392,3.227,-9.172,-1.039,0.000,0.000,0.000,-222511
4.737560708,452424612,3.227,-9.098,-1.000,0.000,0.000,0.000,-222676
4.739764875,452426832,3.227,-9.098,-1.000,0.000,0.000,0.000,-221892
4.744862917,452432052,3.227,-9.098,-1.000,0.000,0.000,0.000,-222232
4.749186083,452436273,3.227,-9.098,-1.000,0.000,0.000,0.000,-222829
4.766892917,452440493,3.227,-9.098,-1.000,0.000,0.000,0.000,-222461
4.766965167,452444714,3.227,-9.098,-1.000,0.000,0.000,0.000,-222142
4.76703725,452449935,3.227,-9.098,-1.000,0.000,0.000,0.000,-222479
4.767109125,452454156,3.266,-9.176,-1.000,0.000,0.000,0.000,-221677
4.770194292,452457377,3.266,-9.176,-1.000,0.000,0.000,0.000,-222235
4.776521083,452463598,3.266,-9.176,-1.000,0.000,0.000,0.000,-223216
4.780747417,452467818,3.266,-9.176,-1.000,0.000,0.000,0.000,-222616
4.784957167,452472039,3.266,-9.176,-1.000,0.000,0.000,0.000,-222329
4.800282708,452477260,3.266,-9.176,-1.000,0.000,0.000,0.000,-222429
4.800355583,452481482,3.266,-9.176,-1.000,0.000,0.000,0.000,-221893
4.800428917,452484703,3.191,-9.094,-1.000,0.000,0.000,0.000,-223274
4.800502583,452486924,3.191,-9.094,-1.000,0.000,0.000,0.000,-222268
4.805082208,452492145,3.191,-9.094,-1.000,0.000,0.000,0.000,-221791
4.810282708,452497366,3.191,-9.094,-1.000,0.000,0.000,0.000,-222079
4.815510208,452502586,3.191,-9.094,-1.000,0.000,0.000,0.000,-222389
4.833737,452506807,3.191,-9.094,-1.000,0.000,0.000,0.000,-221831
4.833904042,452511027,3.191,-9.094,-1.000,0.000,0.000,0.000,-221762
4.833986625,452515248,3.152,-9.137,-0.961,0.000,0.000,0.000,-221874
4.834069,452518468,3.152,-9.137,-0.961,0.000,0.000,0.000,-221943
4.838657667,452525689,3.152,-9.137,-0.961,0.000,0.000,0.000,-222207
4.843050833,452529910,3.152,-9.137,-0.961,0.000,0.000,0.000,-222290
4.847040542,452534130,3.152,-9.137,-0.961,0.000,0.000,0.000,-221712
4.867179958,452539350,3.152,-9.137,-0.961,0.000,0.000,0.000,-222738
4.867387,452543570,3.152,-9.137,-0.961,0.000,0.000,0.000,-222655
4.867468583,452548790,3.266,-9.137,-0.922,0.000,0.000,0.000,-221651
4.8675495,452552010,3.266,-9.137,-0.922,0.000,0.000,0.000,-223073
4.872099333,452559231,3.266,-9.137,-0.922,0.000,0.000,0.000,-223016
4.876385125,452563452,3.266,-9.137,-0.922,0.000,0.000,0.000,-222262
4.880614875,452567672,3.266,-9.137,-0.922,0.000,0.000,0.000,-221417
4.900224667,452571892,3.266,-9.137,-0.922,0.000,0.000,0.000,-222469
4.900306083,452576112,3.305,-9.094,-0.961,0.000,0.000,0.000,-221996
4.900386833,452579333,3.305,-9.094,-0.961,0.000,0.000,0.000,-221205
4.900470792,452585554,3.305,-9.094,-0.961,0.000,0.000,0.000,-222577
4.902713625,452589775,3.305,-9.094,-0.961,0.000,0.000,0.000,-221451
4.906911083,452593996,3.305,-9.094,-0.961,0.000,0.000,0.000,-222453
4.912056708,452599217,3.305,-9.094,-0.961,0.000,0.000,0.000,-222513
4.916393208,452603437,3.305,-9.094,-0.961,0.000,0.000,0.000,-221988
4.933559417,452607658,3.266,-9.094,-0.961,0.000,0.000,0.000,-221469
4.933631375,452610879,3.266,-9.094,-0.961,0.000,0.000,0.000,-222448
4.933703667,452616100,3.266,-9.094,-0.961,0.000,0.000,0.000,-222489
4.9341405,452621321,3.266,-9.094,-0.961,0.000,0.000,0.000,-221643
4.937448708,452624542,3.266,-9.094,-0.961,0.000,0.000,0.000,-221793
4.941663583,452628762,3.266,-9.094,-0.961,0.000,0.000,0.000,-221730
4.945921458,452632983,3.266,-9.094,-0.961,0.000,0.000,0.000,-221798
4.950030875,452637203,3.227,-9.172,-0.961,0.000,0.000,0.000,-222254
4.9668745,452639424,3.227,-9.172,-0.961,0.000,0.000,0.000,-222164
4.966955583,452644645,3.227,-9.172,-0.961,0.000,0.000,0.000,-222343
4.967036417,452648865,3.227,-9.172,-0.961,0.000,0.000,0.000,-221761
4.967117583,452652085,3.227,-9.172,-0.961,0.000,0.000,0.000,-222180
4.969247083,452656306,3.227,-9.172,-0.961,0.000,0.000,0.000,-222684
4.973444042,452660527,3.227,-9.172,-0.961,0.000,0.000,0.000,-222147
4.976656208,452663748,3.227,-9.098,-1.000,0.000,0.000,0.000,-221730
4.97889625,452665969,3.227,-9.098,-1.000,0.000,0.000,0.000,-221956
4.982996792,452670189,3.227,-9.098,-1.000,0.000,0.000,0.000,-221510
5.000258833,452674410,3.227,-9.098,-1.000,0.000,0.000,0.000,-222111
5.000345708,452679631,3.227,-9.098,-1.000,0.000,0.000,0.000,-222194
5.000426708,452683852,3.227,-9.098,-1.000,0.000,0.000,0.000,-221456
5.000913792,452688072,3.227,-9.098,-1.000,0.000,0.000,0.000,-222063
5.004233625,452691293,3.227,-9.098,-0.961,0.000,0.000,0.000,-222671
5.00642,452693514,3.227,-9.098,-0.961,0.000,0.000,0.000,-221711
5.010575,452697735,3.227,-9.098,-0.961,0.000,0.000,0.000,-221887
5.014871042,452701955,3.227,-9.098,-0.961,0.000,0.000,0.000,-222243
5.0335715,452707175,3.227,-9.098,-0.961,0.000,0.000,0.000,-222995
5.033644917,452711395,3.227,-9.098,-0.961,0.000,0.000,0.000,-221288
5.033719,452715616,3.227,-9.098,-0.961,0.000,0.000,0.000,-222202
5.033791375,452719838,3.227,-9.098,-0.961,0.000,0.000,0.000,-222584
5.034973292,452722058,3.227,-9.098,-0.961,0.000,0.000,0.000,-223168
5.040353542,452727279,3.227,-9.098,-0.961,0.000,0.000,0.000,-221979
5.044389542,452731484,3.227,-9.098,-0.961,0.000,0.000,0.000,-221979
5.047552167,452734704,3.227,-9.098,-0.961,0.000,0.000,0.000,-222728
5.066948125,452739925,3.227,-9.098,-0.961,0.000,0.000,0.000,-221963
5.067021292,452744145,3.227,-9.098,-0.961,0.000,0.000,0.000,-222581
5.067094042,452747365,3.227,-9.098,-0.961,0.000,0.000,0.000,-222544
5.067167208,452752586,3.227,-9.098,-0.961,0.000,0.000,0.000,-222941
5.069644083,452756807,3.227,-9.098,-0.961,0.000,0.000,0.000,-222719
5.075194083,452762027,3.227,-9.098,-0.961,0.000,0.000,0.000,-222530
5.080100292,452767247,3.227,-9.098,-0.961,0.000,0.000,0.000,-222718
5.100251417,452772467,3.227,-9.098,-0.961,0.000,0.000,0.000,-221651
5.100323583,452775687,3.227,-9.098,-0.961,0.000,0.000,0.000,-222447
5.100395167,452782907,3.227,-9.098,-0.961,0.000,0.000,0.000,-221994
5.100467958,452787127,3.227,-9.098,-0.961,0.000,0.000,0.000,-222380
5.104162208,452791347,3.227,-9.098,-0.961,0.000,0.000,0.000,-222616
5.109436917,452796567,3.227,-9.098,-0.961,0.000,0.000,0.000,-222236
5.114751375,452801788,3.227,-9.098,-0.961,0.000,0.000,0.000,-222927
5.118836167,452806008,3.227,-9.098,-0.961,0.000,0.000,0.000,-222615
5.13356075,452809229,3.227,-9.098,-0.961,0.000,0.000,0.000,-222005
5.133640125,452814449,3.227,-9.098,-0.961,0.000,0.000,0.000,-221755
5.133719375,452818669,3.227,-9.098,-0.961,0.000,0.000,0.000,-221859
5.135805458,452822889,3.227,-9.098,-0.961,0.000,0.000,0.000,-222720
5.139948875,452827110,3.227,-9.098,-0.961,0.000,0.000,0.000,-222854
5.144248958,452831331,3.227,-9.098,-0.961,0.000,0.000,0.000,-222093
5.148475917,452835552,3.266,-9.133,-1.000,0.000,0.000,0.000,-221875
5.151593458,452838773,3.266,-9.133,-1.000,0.000,0.000,0.000,-222456
5.16691025,452844993,3.266,-9.133,-1.000,0.000,0.000,0.000,-222161
5.166982708,452849214,3.266,-9.133,-1.000,0.000,0.000,0.000,-221607
5.167054583,452853435,3.266,-9.133,-1.000,0.000,0.000,0.000,-222463
5.171591875,452858656,3.266,-9.133,-1.000,0.000,0.000,0.000,-222317
5.175809042,452862877,3.266,-9.133,-1.000,0.000,0.000,0.000,-222137
5.180010292,452867098,3.227,-9.137,-0.961,0.000,0.000,0.000,-221982
5.183232208,452870318,3.227,-9.137,-0.961,0.000,0.000,0.000,-222094
5.200206833,452875539,3.227,-9.137,-0.961,0.000,0.000,0.000,-221758
5.200289542,452880759,3.227,-9.137,-0.961,0.000,0.000,0.000,-222052
5.200372,452884980,3.227,-9.137,-0.961,0.000,0.000,0.000,-221970
5.202103542,452889201,3.227,-9.137,-0.961,0.000,0.000,0.000,-222628
5.20534,452892422,3.227,-9.137,-0.961,0.000,0.000,0.000,-222476
5.209559958,452896642,3.227,-9.098,-0.961,0.000,0.000,0.000,-222159
5.211705708,452898862,3.227,-9.098,-0.961,0.000,0.000,0.000,-222531
5.216938958,452904082,3.227,-9.098,-0.961,0.000,0.000,0.000,-221712
5.233583417,452909303,3.227,-9.098,-0.961,0.000,0.000,0.000,-221518
5.233658917,452913524,3.227,-9.098,-0.961,0.000,0.000,0.000,-222062
5.233732458,452918745,3.227,-9.098,-0.961,0.000,0.000,0.000,-222025
5.235871583,452922965,3.227,-9.098,-0.961,0.000,0.000,0.000,-222607
5.240177542,452927186,3.227,-9.098,-0.961,0.000,0.000,0.000,-222785
5.24334225,452930407,3.227,-9.098,-0.961,0.000,0.000,0.000,-222132
5.248548042,452935627,3.227,-9.098,-0.961,0.000,0.000,0.000,-222388
5.266897458,452940848,3.227,-9.098,-0.961,0.000,0.000,0.000,-221713
5.266970042,452945069,3.227,-9.098,-0.961,0.000,0.000,0.000,-222377
5.267042583,452949289,3.227,-9.098,-0.961,0.000,0.000,0.000,-222324
5.267114542,452953509,3.227,-9.098,-0.961,0.000,0.000,0.000,-221930
5.270635625,452957729,3.227,-9.098,-1.000,0.000,0.000,0.000,-222053
5.272881333,452959950,3.227,-9.098,-1.000,0.000,0.000,0.000,-221890
5.278143667,452965171,3.227,-9.098,-1.000,0.000,0.000,0.000,-222156
5.282321042,452969392,3.227,-9.098,-1.000,0.000,0.000,0.000,-221456
5.285442,452972613,3.227,-9.098,-1.000,0.000,0.000,0.000,-221923
5.300410167,452976834,3.227,-9.098,-1.000,0.000,0.000,0.000,-221686
5.300541167,452982055,3.227,-9.098,-1.000,0.000,0.000,0.000,-222418
5.300628208,452986276,3.266,-9.133,-1.000,0.000,0.000,0.000,-222246
5.302437708,452989497,3.266,-9.133,-1.000,0.000,0.000,0.000,-222176
5.307580625,452994717,3.266,-9.133,-1.000,0.000,0.000,0.000,-222426
5.3128795,452999938,3.266,-9.133,-1.000,0.000,0.000,0.000,-221911
5.317030667,453004159,3.266,-9.133,-1.000,0.000,0.000,0.000,-222157
5.333795792,453009380,3.266,-9.133,-1.000,0.000,0.000,0.000,-222514
5.333883708,453014601,3.266,-9.133,-1.000,0.000,0.000,0.000,-221965
5.333970958,453019822,3.227,-9.098,-0.961,0.000,0.000,0.000,-222346
5.33495775,453022042,3.227,-9.098,-0.961,0.000,0.000,0.000,-222458
5.3392035,453026263,3.227,-9.098,-0.961,0.000,0.000,0.000,-222494
5.345412125,453032484,3.227,-9.098,-0.961,0.000,0.000,0.000,-222270
5.350646125,453037705,3.227,-9.098,-0.961,0.000,0.000,0.000,-222725
5.366896542,453041926,3.227,-9.098,-0.961,0.000,0.000,0.000,-221865
5.366985542,453046147,3.227,-9.098,-0.961,0.000,0.000,0.000,-222428
5.367075542,453050367,3.266,-9.094,-0.961,0.000,0.000,0.000,-221623
5.367166458,453053587,3.266,-9.094,-0.961,0.000,0.000,0.000,-222266
5.372742625,453059808,3.266,-9.094,-0.961,0.000,0.000,0.000,-222044
5.376961542,453064028,3.266,-9.094,-0.961,0.000,0.000,0.000,-222150
5.380182583,453067249,3.266,-9.094,-0.961,0.000,0.000,0.000,-222326
5.384333583,453071471,3.266,-9.094,-0.961,0.000,0.000,0.000,-222589
5.400232292,453075691,3.266,-9.094,-0.961,0.000,0.000,0.000,-222875
5.400323875,453080912,3.227,-9.137,-0.961,0.000,0.000,0.000,-222455
5.400414,453084132,3.227,-9.137,-0.961,0.000,0.000,0.000,-221694
5.402346875,453089352,3.227,-9.137,-0.961,0.000,0.000,0.000,-221532
5.406485333,453093573,3.227,-9.137,-0.961,0.000,0.000,0.000,-222295
5.409704292,453096794,3.227,-9.137,-0.961,0.000,0.000,0.000,-221863
5.414936667,453102014,3.227,-9.137,-0.961,0.000,0.000,0.000,-222582
5.419150083,453106235,3.227,-9.137,-0.961,0.000,0.000,0.000,-221769
5.433566583,453110455,3.227,-9.172,-1.000,0.000,0.000,0.000,-221422
5.4336585,453112676,3.227,-9.172,-1.000,0.000,0.000,0.000,-222146
5.433748958,453117897,3.227,-9.172,-1.000,0.000,0.000,0.000,-223314
5.436013083,453123120,3.227,-9.172,-1.000,0.000,0.000,0.000,-222087
5.440292417,453127340,3.227,-9.172,-1.000,0.000,0.000,0.000,-222884
5.445512875,453132560,3.227,-9.172,-1.000,0.000,0.000,0.000,-222267
5.449747417,453136781,3.227,-9.172,-1.000,0.000,0.000,0.000,-222050
5.466932,453141002,2.809,-9.137,-1.000,0.000,0.000,0.000,-222181
5.467004292,453144223,2.809,-9.137,-1.000,0.000,0.000,0.000,-221877
5.467076583,453149443,2.809,-9.137,-1.000,0.000,0.000,0.000,-222306
5.467148917,453153664,2.809,-9.137,-1.000,0.000,0.000,0.000,-222639
5.47081875,453157885,2.809,-9.137,-1.000,0.000,0.000,0.000,-221775
5.475041417,453162106,3.074,-9.176,-0.961,0.000,0.000,0.000,-222475
5.478239917,453165326,3.074,-9.176,-0.961,0.000,0.000,0.000,-222718
5.484501375,453171547,3.074,-9.176,-0.961,0.000,0.000,0.000,-222464
5.500219125,453175768,3.074,-9.176,-0.961,0.000,0.000,0.000,-222697
5.500293333,453179988,3.074,-9.176,-0.961,0.016,-0.012,-0.070,-222210
5.500367042,453185209,3.074,-9.176,-0.961,-0.008,0.002,0.029,-223080
5.502350167,453189430,3.074,-9.176,-0.961,0.008,0.018,0.021,-222752
5.506607125,453193651,3.688,-9.172,-0.770,0.008,0.018,0.021,-223828
5.50970475,453196871,3.688,-9.172,-0.770,-0.021,0.020,0.041,-223890
5.533720417,453203092,3.688,-9.172,-0.770,0.027,-0.043,-0.039,-222825
5.53380625,453207313,3.688,-9.172,-0.770,0.049,-0.014,0.088,-222076
5.5338915,453211534,3.688,-9.172,-0.770,-0.039,0.057,0.229,-223356
5.533976708,453215755,3.688,-9.172,-0.770,-0.008,0.043,0.084,-222995
5.534063458,453220976,3.688,-9.172,-0.770,0.006,-0.029,-0.088,-222912
5.538127458,453225197,3.266,-9.094,-0.770,0.006,-0.029,-0.088,-222458
5.540337333,453227418,3.266,-9.094,-0.770,-0.014,-0.031,-0.104,-222653
5.545549667,453232639,3.266,-9.094,-0.770,-0.031,0.012,0.096,-222646
5.549760417,453236860,3.266,-9.094,-0.770,-0.027,0.029,0.082,-222096
5.566936542,453241081,3.266,-9.094,-0.770,-0.004,0.010,-0.008,-222757
5.567012917,453245302,3.266,-9.094,-0.770,0.010,-0.006,-0.047,-222019
5.567088625,453250523,3.266,-9.094,-0.770,0.020,-0.023,-0.010,-222965
5.567661542,453254744,3.305,-9.020,-1.000,0.020,-0.023,-0.010,-222551
5.570906458,453257965,3.305,-9.020,-1.000,0.023,0.006,0.021,-222811
5.577117458,453264186,3.305,-9.020,-1.000,0.018,0.031,0.064,-223253
5.581251458,453268409,3.305,-9.020,-1.000,-0.016,0.004,-0.004,-222975
5.60022775,453272630,3.305,-9.020,-1.000,0.000,-0.006,-0.012,-222970
5.600305792,453277851,3.305,-9.020,-1.000,-0.014,0.004,-0.004,-222368
5.60038,453282072,3.305,-9.020,-1.000,-0.008,0.006,0.014,-222851
5.600454458,453285293,3.457,-9.098,-0.617,-0.008,0.006,0.014,-222912
5.60052925,453287499,3.457,-9.098,-0.617,-0.010,-0.023,0.004,-222912
5.604674,453291719,3.457,-9.098,-0.617,0.041,-0.086,-0.047,-222978
5.608873083,453295940,3.457,-9.098,-0.617,0.010,-0.016,0.064,-222846
5.614091583,453301161,3.457,-9.098,-0.617,-0.006,0.000,0.043,-222655
5.618331833,453305382,3.457,-9.098,-0.617,0.002,0.086,-0.023,-222693
5.633546667,453309603,3.457,-9.098,-0.617,0.006,0.061,-0.033,-222656
5.633620042,453313824,3.113,-9.137,-1.113,0.006,0.061,-0.033,-222986
5.633703,453316045,3.113,-9.137,-1.113,-0.004,0.000,-0.066,-222946
5.634120833,453321266,3.113,-9.137,-1.113,0.004,-0.043,0.041,-223231
5.638423792,453325487,3.113,-9.137,-1.113,-0.002,-0.025,0.082,-222826
5.642627875,453329708,3.113,-9.137,-1.113,-0.010,-0.012,0.039,-222616
5.646847083,453333929,3.113,-9.137,-1.113,-0.006,0.000,0.014,-223093
5.666885,453339150,3.113,-9.137,-1.113,-0.016,-0.006,-0.051,-222084
5.666970792,453342371,3.035,-9.172,-1.000,-0.016,-0.006,-0.051,-223122
5.667054083,453344592,3.035,-9.172,-1.000,0.039,-0.070,-0.039,-221983
5.667134667,453349813,3.035,-9.172,-1.000,0.018,0.012,0.066,-222817
5.667216583,453354034,3.035,-9.172,-1.000,0.025,-0.027,0.113,-222506
5.673192875,453360255,3.035,-9.172,-1.000,0.039,-0.023,-0.033,-222376
5.677427167,453364476,3.035,-9.172,-1.000,0.027,-0.008,-0.027,-222584
5.681549917,453368697,3.035,-9.172,-1.000,0.002,0.016,0.029,-222426
5.700242208,453371918,3.227,-9.211,-0.922,0.002,0.016,0.029,-222340
5.70031725,453374139,3.227,-9.211,-0.922,-0.016,0.020,0.000,-222469
5.700392,453379360,3.227,-9.211,-0.922,0.014,-0.031,-0.006,-222470
5.70046675,453384581,3.227,-9.211,-0.922,0.023,-0.016,-0.008,-222425
5.701754792,453388802,3.305,-9.211,-0.617,0.023,-0.016,-0.008,-223460
5.705035875,453392008,3.305,-9.211,-0.617,-0.002,0.008,0.000,-223460
5.710163083,453397228,3.305,-9.211,-0.617,0.029,-0.002,-0.002,-223029
5.714384333,453401449,3.305,-9.211,-0.617,0.049,-0.016,-0.002,-222246
5.733542583,453405670,3.305,-9.211,-0.617,0.012,0.029,0.082,-222474
5.733618208,453409891,3.305,-9.211,-0.617,0.029,0.014,0.111,-222386
5.733700125,453414112,3.305,-9.211,-0.617,0.016,-0.004,0.125,-222033
5.733797875,453418333,3.191,-9.055,-0.848,0.016,-0.004,0.125,-222793
5.734534292,453421554,3.191,-9.055,-0.848,-0.023,0.049,-0.084,-223429
5.73979125,453426775,3.191,-9.055,-0.848,-0.018,-0.016,-0.047,-223135
5.743931292,453430996,3.191,-9.055,-0.848,-0.012,0.006,-0.047,-222509
5.748156542,453435217,3.191,-9.055,-0.848,-0.025,0.008,0.055,-222181
5.766890542,453439438,3.191,-9.055,-0.848,0.020,-0.047,0.082,-222127
5.766973083,453442659,3.191,-9.055,-0.922,0.020,-0.047,0.082,-222592
5.767054333,453444880,3.191,-9.055,-0.922,0.021,-0.066,0.018,-222032
5.767135958,453449101,3.191,-9.055,-0.922,0.074,-0.088,0.008,-222669
5.767218292,453453322,3.191,-9.055,-0.922,0.045,-0.088,0.094,-222137
5.770454542,453457543,3.191,-9.055,-0.922,0.066,-0.068,0.051,-222745
5.774687417,453461764,3.191,-9.055,-0.922,0.211,0.072,0.016,-222686
5.778887042,453465985,3.191,-9.055,-0.922,0.127,0.047,0.010,-222824
5.783031583,453470206,3.344,-8.980,-1.152,0.127,0.047,0.010,-222176
5.800203875,453472427,3.344,-8.980,-1.152,0.033,-0.031,-0.002,-222635
5.800287417,453476648,3.344,-8.980,-1.152,0.049,-0.045,0.047,-222309
5.800371875,453480869,3.344,-8.980,-1.152,-0.004,-0.016,0.047,-221959
5.800453792,453484090,3.344,-8.980,-1.152,0.020,-0.043,0.059,-222943
5.801238917,453488311,3.344,-8.980,-1.152,0.102,0.018,0.084,-222469
5.805465875,453492532,3.344,-8.980,-1.152,0.045,0.029,0.084,-222969
5.809662042,453496753,3.035,-9.133,-0.922,0.045,0.029,0.084,-223454
5.812914708,453499973,3.035,-9.133,-0.922,-0.031,0.068,0.043,-222976
5.818054875,453505194,3.035,-9.133,-0.922,0.041,-0.014,-0.064,-222133
5.833580333,453509415,3.035,-9.133,-0.922,0.021,-0.027,-0.006,-222423
5.833653458,453513636,3.035,-9.133,-0.922,0.057,-0.039,0.111,-221907
5.833727,453518857,3.035,-9.133,-0.922,0.062,-0.010,0.123,-222052
5.836013625,453523078,3.035,-9.133,-0.922,0.016,-0.002,0.082,-221758
5.84021475,453527299,3.035,-9.016,-1.000,0.016,-0.002,0.082,-222728
5.843448417,453530520,3.035,-9.016,-1.000,0.027,0.029,-0.008,-221733
5.848581625,453535741,3.035,-9.016,-1.000,0.033,0.029,-0.031,-223475
5.86689425,453540962,3.035,-9.016,-1.000,0.027,0.014,-0.004,-222436
5.866969667,453545183,3.035,-9.016,-1.000,0.006,-0.008,-0.002,-222825
5.867043083,453549404,3.035,-9.016,-1.000,0.027,-0.039,0.025,-222256
5.867118208,453553625,3.035,-9.016,-1.000,-0.004,-0.059,0.008,-222771
5.870790375,453557846,3.266,-9.094,-0.809,-0.004,-0.059,0.008,-222801
5.873041125,453560067,3.266,-9.094,-0.809,0.021,-0.051,-0.008,-222062
5.878124833,453565288,3.266,-9.094,-0.809,0.023,-0.021,0.018,-222246
5.88233475,453569509,3.266,-9.094,-0.809,0.016,0.002,0.023,-221708
5.900236375,453572730,3.266,-9.094,-0.809,0.027,0.029,-0.020,-223281
5.900310583,453576951,3.266,-9.094,-0.809,0.033,0.018,-0.033,-222320
5.900384542,453581172,3.266,-9.094,-0.809,0.010,0.020,-0.045,-222397
5.900469333,453584393,3.152,-9.055,-0.883,0.010,0.020,-0.045,-222257
5.900549292,453586614,3.152,-9.055,-0.883,-0.002,0.010,-0.055,-222795
5.90374325,453590835,3.152,-9.055,-0.883,-0.018,0.002,0.002,-222489
5.908009625,453595056,3.152,-9.055,-0.883,-0.018,-0.004,-0.002,-222365
5.913128,453600277,3.152,-9.055,-0.883,-0.002,0.021,-0.062,-222746
5.93381225,453604498,3.152,-9.055,-0.883,-0.021,0.010,-0.035,-222710
5.933898125,453608719,3.152,-9.055,-0.883,-0.078,0.068,-0.051,-222663
5.933984208,453611940,3.227,-9.133,-0.730,-0.078,0.068,-0.051,-222713
5.934070083,453614161,3.227,-9.133,-0.730,-0.053,0.066,-0.094,-223403
5.934154708,453618382,3.227,-9.133,-0.730,-0.033,0.020,-0.035,-223046
5.935482458,453622603,3.227,-9.133,-0.730,-0.018,0.004,-0.051,-223097
5.940776708,453627824,3.227,-9.133,-0.730,-0.027,0.041,0.012,-223291
5.944894083,453632045,3.227,-9.133,-0.730,-0.014,0.076,-0.018,-222631
5.949213167,453636266,3.227,-9.133,-0.730,-0.074,0.043,-0.062,-222481
5.967072292,453640487,3.191,-9.094,-1.000,-0.074,0.043,-0.062,-222609
5.967228375,453642708,3.191,-9.094,-1.000,-0.025,0.041,-0.006,-222349
5.967314,453647929,3.191,-9.094,-1.000,-0.020,-0.012,-0.012,-222783
5.967398625,453652150,3.191,-9.094,-1.000,-0.035,-0.021,0.016,-221818
5.968312625,453655371,3.191,-9.094,-1.000,-0.025,0.010,-0.020,-222774
5.973535917,453660592,3.191,-9.094,-1.000,-0.031,0.045,-0.018,-222502
5.977671167,453664813,3.191,-9.094,-1.000,-0.023,0.049,-0.006,-223439
5.980943292,453668034,3.383,-9.094,-0.922,-0.023,0.049,-0.006,-222852
6.000299917,453673255,3.383,-9.094,-0.922,-0.004,0.053,0.004,-222400
6.000375125,453677476,3.383,-9.094,-0.922,-0.021,0.055,0.004,-223369
6.000450792,453682699,3.383,-9.094,-0.922,-0.041,0.117,0.021,-222770
6.000526,453686920,3.383,-9.094,-0.922,-0.035,0.070,0.023,-223385
6.0040685,453691141,3.035,-9.137,-1.039,-0.035,0.070,0.023,-222149
6.007241083,453694362,3.035,-9.137,-1.039,-0.041,0.043,-0.012,-222167
6.01347025,453700583,3.035,-9.137,-1.039,-0.039,0.020,0.000,-222743
6.033579333,453704804,3.035,-9.137,-1.039,-0.033,0.021,0.012,-223276
6.033657458,453709025,3.035,-9.137,-1.039,-0.031,-0.012,-0.008,-222449
6.033733542,453713246,3.035,-9.137,-1.039,-0.016,-0.047,0.002,-222700
6.033808,453717468,3.035,-9.137,-1.039,0.018,-0.066,0.008,-222999
6.03458625,453721689,3.191,-9.094,-1.039,0.018,-0.066,0.008,-222529
6.036757958,453723910,3.191,-9.094,-1.039,0.033,-0.053,0.023,-221845
6.041047875,453728131,3.191,-9.094,-1.039,0.049,-0.041,0.037,-223197
6.045178167,453732352,3.191,-9.094,-1.039,0.051,-0.037,0.045,-223064
6.049402167,453736573,3.191,-9.094,-1.039,0.037,-0.062,0.021,-222148
6.066896333,453741794,3.191,-9.094,-1.039,0.023,-0.061,0.029,-222227
6.066980125,453746015,3.344,-9.016,-1.152,0.023,-0.061,0.029,-222792
6.067062917,453749236,3.344,-9.016,-1.152,0.000,-0.043,0.010,-222245
6.067283667,453754457,3.344,-9.016,-1.152,-0.029,-0.018,-0.002,-222671
6.072600875,453759678,3.344,-9.016,-1.152,-0.021,0.000,-0.016,-222655
6.075816875,453762899,3.344,-9.016,-1.152,-0.021,-0.002,-0.014,-222568
6.080034083,453767120,3.344,-9.016,-1.152,-0.014,-0.004,-0.016,-222160
6.100219167,453772341,3.344,-9.016,-1.152,-0.002,-0.023,0.002,-222709
6.100302292,453775562,3.227,-9.137,-1.039,-0.002,-0.023,0.002,-222493
6.100382542,453778783,3.227,-9.137,-1.039,0.004,0.016,0.043,-222461
6.1004625,453785004,3.227,-9.137,-1.039,0.016,0.045,0.008,-222543
6.102140875,453789225,3.227,-9.137,-1.039,0.000,0.041,-0.016,-222065
6.106360667,453793446,3.227,-9.137,-1.039,0.008,0.002,-0.004,-222149
6.110521,453797667,3.227,-9.137,-1.039,0.018,-0.025,-0.029,-222650
6.115863958,453802888,3.074,-9.133,-0.809,0.018,-0.025,-0.029,-223064
6.117984542,453805109,3.074,-9.133,-0.809,0.010,-0.018,0.010,-222882
6.133543667,453810330,3.074,-9.133,-0.809,0.012,-0.002,0.020,-222280
6.133626125,453814551,2.961,-9.172,-1.113,0.012,-0.002,0.020,-221791
6.133708458,453816772,2.961,-9.172,-1.113,-0.010,0.010,0.000,-222936
6.134923333,453821993,2.961,-9.172,-1.113,0.016,0.021,-0.025,-222418
6.140144375,453827214,2.961,-9.172,-1.113,0.008,-0.006,-0.016,-222968
6.144384958,453831435,2.961,-9.172,-1.113,-0.006,-0.012,0.008,-223087
6.148586125,453835656,2.961,-9.172,-1.113,0.002,-0.031,0.010,-222627
6.166896917,453840877,2.961,-9.172,-1.113,0.008,-0.043,-0.012,-222346
6.166973,453845098,3.113,-9.098,-1.078,0.008,-0.043,-0.012,-224084
6.167048583,453848319,3.113,-9.098,-1.078,0.016,-0.031,-0.021,-223195
6.167393542,453854540,3.113,-9.098,-1.078,0.006,0.006,0.002,-221123
6.171702667,453858761,3.113,-9.098,-1.078,0.002,-0.012,-0.031,-222581
6.175911958,453862982,3.113,-9.098,-1.078,0.000,-0.029,-0.023,-222888
6.1800725,453867203,3.113,-9.098,-1.078,-0.012,-0.031,0.000,-222452
6.1852815,453872425,3.113,-9.098,-1.078,-0.014,-0.066,-0.014,-222750
6.200484583,453875645,3.266,-9.281,-0.730,-0.014,-0.066,-0.014,-221678
6.200574625,453877866,3.266,-9.281,-0.730,0.029,-0.010,-0.010,-222157
6.200666875,453882072,3.266,-9.281,-0.730,-0.029,0.041,0.000,-222157
6.200754625,453886292,3.266,-9.281,-0.730,0.025,0.006,-0.029,-223499
6.203403333,453890513,3.266,-9.281,-0.730,0.037,0.000,-0.047,-221955
6.208625292,453895734,3.266,-9.281,-0.730,-0.014,0.066,0.047,-222978
6.2129075,453899955,3.266,-9.281,-0.730,-0.002,0.061,0.041,-223002
6.216095667,453903176,3.344,-9.059,-0.922,-0.002,0.061,0.041,-222327
6.218333458,453905397,3.344,-9.059,-0.922,-0.008,0.076,0.000,-222818
6.233767208,453910618,3.344,-9.059,-0.922,-0.045,0.117,-0.004,-222189
6.233856208,453914839,3.344,-9.059,-0.922,-0.064,0.127,0.057,-222457
6.233945792,453920060,3.344,-9.059,-0.922,-0.068,0.090,-0.006,-223162
6.237252125,453924281,3.344,-9.059,-0.922,-0.092,0.068,-0.061,-222250
6.242454542,453929502,3.344,-9.059,-0.922,-0.064,-0.008,-0.113,-222739
6.24662675,453933723,2.922,-9.133,-0.770,-0.064,-0.008,-0.113,-222942
6.249871208,453936944,2.922,-9.133,-0.770,-0.068,0.002,-0.031,-223180
6.266891458,453943165,2.922,-9.133,-0.770,-0.051,-0.008,-0.002,-222922
6.266985708,453947386,2.922,-9.133,-0.770,-0.049,-0.023,-0.004,-222477
6.267079042,453950607,2.922,-9.133,-0.770,-0.027,-0.041,-0.029,-222281
6.268758375,453955828,2.922,-9.133,-0.770,0.000,-0.107,0.006,-223265
6.273980875,453961049,2.922,-9.133,-0.770,-0.012,-0.084,0.066,-222718
6.278204292,453965270,3.266,-9.211,-1.039,-0.012,-0.084,0.066,-222397
6.28036775,453967492,3.266,-9.211,-1.039,0.014,-0.094,0.049,-223059
6.285558333,453972713,3.266,-9.211,-1.039,0.012,-0.084,-0.039,-222748
6.300271792,453976934,3.266,-9.211,-1.039,0.010,-0.107,-0.027,-222816
6.300346417,453981155,3.266,-9.211,-1.039,0.016,-0.105,-0.016,-223078
6.3004245,453985376,3.266,-9.211,-1.039,0.016,-0.076,0.039,-222244
6.301537458,453988597,3.457,-9.211,-0.922,0.016,-0.076,0.039,-222830
6.305754792,453992818,3.457,-9.211,-0.922,0.018,-0.010,0.055,-222973
6.309982292,453997039,3.383,-9.172,-1.000,0.018,-0.010,0.055,-223055
6.315229,454002261,3.383,-9.172,-1.000,0.020,-0.004,0.008,-222403
6.333563333,454006481,3.383,-9.172,-1.000,0.037,-0.004,-0.008,-223150
6.333651208,454010702,3.383,-9.172,-1.000,0.020,0.018,0.018,-222350
6.333738542,454014923,3.383,-9.172,-1.000,0.039,0.014,0.018,-222969
6.333826292,454020144,3.383,-9.172,-1.000,0.021,0.033,0.029,-222053
6.336296667,454023365,2.922,-9.211,-1.000,0.021,0.033,0.029,-222619
6.338519167,454025586,2.922,-9.211,-1.000,0.029,0.072,0.023,-222491
6.343753708,454030807,2.922,-9.211,-1.000,0.029,0.035,-0.012,-222067
6.347952792,454035028,2.922,-9.211,-1.000,0.043,0.000,-0.027,-222370
6.352182292,454039249,2.922,-9.211,-1.000,0.039,0.000,0.008,-222720
6.366912458,454043470,2.922,-9.211,-1.000,0.051,-0.012,0.051,-222550
6.366985167,454047691,2.922,-9.211,-1.000,0.055,0.000,0.062,-223077
6.367057625,454050912,3.152,-9.254,-0.883,0.055,0.000,0.062,-221944
6.367131667,454053133,3.152,-9.254,-0.883,0.076,-0.012,0.064,-222237
6.371273292,454058354,3.152,-9.254,-0.883,0.061,-0.035,-0.008,-222523
6.375523917,454062575,3.152,-9.254,-0.883,0.086,-0.025,0.002,-223001
6.378742375,454065796,3.152,-9.254,-0.883,0.076,-0.002,0.020,-222750
6.382959542,454070017,3.152,-9.254,-0.883,0.053,-0.010,0.039,-222564
6.400204208,454075238,3.152,-9.254,-0.883,0.016,-0.023,0.020,-222697
6.400278625,454080460,3.191,-9.020,-1.000,0.016,-0.023,0.020,-222980
6.400353958,454083681,3.191,-9.020,-1.000,0.006,-0.020,-0.037,-223111
6.401827333,454088902,3.191,-9.020,-1.000,-0.041,0.023,0.006,-222274
6.406173417,454093123,3.191,-9.020,-1.000,-0.016,0.021,-0.021,-223309
6.41028325,454097344,3.191,-9.020,-1.000,-0.039,0.021,-0.035,-222446
6.415434333,454102565,3.191,-9.020,-1.000,-0.049,0.027,-0.025,-222295
6.419630083,454106786,3.191,-9.020,-1.000,-0.018,0.006,-0.033,-223263
6.43360475,454110007,3.305,-9.094,-0.770,-0.018,0.006,-0.033,-221687
6.433682458,454113228,3.305,-9.094,-0.770,-0.018,-0.010,-0.027,-221731
6.433757583,454119449,3.305,-9.094,-0.770,-0.041,0.023,0.025,-222808
6.43653925,454123670,3.305,-9.094,-0.770,-0.066,0.025,-0.016,-223416
6.440833,454127891,3.305,-9.094,-0.770,-0.053,-0.008,-0.014,-223419
6.446125458,454133112,3.305,-9.094,-0.770,-0.018,0.061,-0.018,-222305
6.450280667,454137333,3.305,-9.094,-0.770,-0.014,0.033,-0.002,-222272
6.467129583,454141554,3.305,-9.133,-1.113,-0.014,0.033,-0.002,-223280
6.467219458,454143775,3.305,-9.133,-1.113,-0.045,0.043,0.000,-222348
6.467307833,454147996,3.305,-9.133,-1.113,-0.039,0.123,0.008,-222259
6.467395833,454153217,3.305,-9.133,-1.113,-0.086,0.131,0.039,-222216
6.470396375,454157438,3.305,-9.133,-1.113,-0.102,0.141,0.023,-223423
6.47562875,454162659,3.305,-9.133,-1.113,-0.123,0.074,-0.025,-223105
6.480830833,454167880,3.305,-9.133,-1.113,-0.076,0.049,-0.033,-222009
6.484035125,454171101,2.961,-9.254,-0.617,-0.076,0.049,-0.033,-222850
6.500180542,454174322,2.961,-9.254,-0.617,-0.064,0.010,-0.070,-222851
6.500541375,454180543,2.961,-9.254,-0.617,-0.062,0.006,-0.041,-222694
6.500639333,454184764,2.961,-9.254,-0.617,-0.062,-0.002,-0.008,-222179
6.500835042,454187985,2.961,-9.254,-0.617,-0.025,-0.053,-0.012,-222532
6.5061555,454193206,2.961,-9.254,-0.617,0.004,-0.072,-0.002,-222361
6.511538042,454198427,3.152,-9.172,-1.078,0.004,-0.072,-0.002,-222667
6.513589667,454200648,3.152,-9.172,-1.078,0.020,-0.082,0.076,-222070
6.533571833,454205869,3.152,-9.172,-1.078,0.004,-0.047,0.043,-222877
6.533648292,454210090,3.152,-9.172,-1.078,0.020,-0.088,-0.012,-222422
6.533724208,454214311,3.152,-9.172,-1.078,0.055,-0.168,-0.053,-222600
6.533798708,454218532,3.152,-9.172,-1.078,0.029,-0.068,0.043,-222917
6.535700833,454222753,3.152,-9.172,-1.078,-0.010,-0.064,0.082,-223511
6.538864625,454225974,3.422,-9.285,-1.000,-0.010,-0.064,0.082,-222126
6.541124042,454228195,3.422,-9.285,-1.000,-0.008,-0.021,0.100,-222843
6.54627125,454233416,3.422,-9.285,-1.000,0.025,0.002,-0.049,-222726
6.566901583,454237637,3.422,-9.285,-1.000,0.018,0.002,-0.053,-222824
6.566975833,454242858,3.422,-9.285,-1.000,0.031,0.043,0.039,-222877
6.567048,454247079,3.074,-9.250,-0.883,0.031,0.043,0.039,-223203
6.567120333,454250300,3.074,-9.250,-0.883,0.008,0.047,0.027,-222831
6.568470542,454255520,3.074,-9.250,-0.883,0.039,-0.004,0.012,-221983
6.573681917,454260741,3.074,-9.250,-0.883,0.029,-0.023,0.014,-222383
6.577896042,454264965,3.074,-9.250,-0.883,0.051,-0.021,0.047,-222993
6.582182917,454269186,3.074,-9.250,-0.883,0.088,-0.014,0.045,-221914
6.600219583,454273407,3.074,-9.211,-0.809,0.088,-0.014,0.045,-222571
6.600304458,454276628,3.074,-9.211,-0.809,0.068,-0.020,0.076,-222128
6.600389792,454282849,3.074,-9.211,-0.809,0.168,-0.010,-0.006,-222545
6.600473625,454287070,3.074,-9.211,-0.809,0.141,0.018,-0.039,-222932
6.604447625,454291291,3.074,-9.211,-0.809,0.064,-0.027,-0.012,-222103
6.6084805,454295512,3.074,-9.211,-0.809,0.057,-0.033,0.004,-222480
6.61368525,454300733,3.074,-9.211,-0.809,0.037,-0.006,0.066,-222685
6.61789425,454304954,3.152,-8.941,-1.000,0.037,-0.006,0.066,-222616
6.633565,454308175,3.152,-8.941,-1.000,0.037,-0.041,0.082,-221758
6.6336535,454313396,3.152,-8.941,-1.000,0.029,0.006,-0.010,-222547
6.633741125,454318617,3.152,-8.941,-1.000,-0.010,0.018,-0.027,-222570
6.635792083,454322838,3.152,-8.941,-1.000,-0.014,0.020,-0.020,-222467
6.640037917,454327059,3.152,-8.941,-1.000,-0.008,0.008,-0.021,-222155
6.644227583,454331280,3.152,-8.941,-1.000,-0.010,0.010,0.012,-222725
6.648381792,454335501,3.191,-9.059,-0.961,-0.010,0.010,0.012,-222756
6.666934667,454338722,3.191,-9.059,-0.961,-0.027,-0.008,0.000,-222345
6.667009708,454343943,3.191,-9.059,-0.961,-0.041,0.029,-0.023,-222035
6.667085292,454348164,3.191,-9.059,-0.961,-0.041,0.021,-0.021,-222193
6.667160292,454352385,3.191,-9.059,-0.961,-0.037,0.014,-0.029,-222503
6.669571083,454356606,3.191,-9.059,-0.961,-0.059,0.025,-0.023,-222443
6.674777583,454361827,3.191,-9.059,-0.961,-0.066,0.025,0.014,-223008
6.6789805,454366048,3.191,-9.324,-0.848,-0.066,0.025,0.014,-222389
6.682202292,454369269,3.191,-9.324,-0.848,-0.057,0.008,-0.049,-222580
6.700222042,454374490,3.191,-9.324,-0.848,-0.037,-0.018,-0.078,-222278
6.700300417,454378711,3.191,-9.324,-0.848,-0.039,-0.010,-0.047,-222305
6.700378708,454383932,3.191,-9.324,-0.848,-0.010,-0.031,-0.008,-222557
6.701026083,454388153,3.191,-9.324,-0.848,0.004,-0.031,0.012,-223120
6.70535625,454392374,3.191,-9.324,-0.848,0.010,0.008,0.041,-223375
6.709528792,454396595,3.344,-9.016,-1.383,0.010,0.008,0.041,-223066
6.711646833,454398816,3.344,-9.016,-1.383,0.006,0.102,0.031,-223216
6.716979125,454404037,3.344,-9.016,-1.383,0.004,0.070,-0.055,-222589
6.733784292,454408258,3.344,-9.016,-1.383,-0.010,0.080,-0.057,-222690
6.733978708,454412479,3.344,-9.016,-1.383,-0.027,0.062,-0.002,-223745
6.734064333,454416700,3.344,-9.016,-1.383,-0.055,0.086,-0.008,-223986
6.734150833,454420921,3.344,-9.016,-1.383,-0.072,0.100,-0.029,-222666
6.7381305,454425142,2.922,-9.098,-0.691,-0.072,0.100,-0.029,-222839
6.741318625,454428363,2.922,-9.098,-0.691,-0.090,0.068,-0.049,-223393
6.7465475,454433584,2.922,-9.098,-0.691,-0.041,0.055,-0.047,-222682
6.751654708,454438805,2.922,-9.098,-0.691,-0.027,0.000,-0.035,-222817
6.766935167,454443026,2.922,-9.098,-0.691,-0.004,0.006,-0.004,-223197
6.767010708,454447248,2.922,-9.098,-0.691,-0.008,-0.010,0.047,-222730
6.767083958,454451468,2.922,-9.098,-0.691,0.000,0.012,0.041,-223303
6.768648208,454455689,3.191,-9.020,-1.113,0.000,0.012,0.041,-222529
6.771851583,454458910,3.191,-9.020,-1.113,0.004,-0.035,0.027,-221951
6.777086083,454464131,3.191,-9.020,-1.113,-0.002,-0.016,0.020,-222997
6.781216333,454468352,3.191,-9.020,-1.113,-0.041,-0.082,-0.006,-222697
6.800203042,454472573,3.191,-9.020,-1.113,-0.025,-0.072,-0.041,-223102
6.8002895,454476794,3.191,-9.020,-1.113,-0.010,-0.045,-0.059,-223422
6.800373833,454482015,3.191,-9.020,-1.113,-0.020,-0.027,0.023,-222694
6.800458708,454486238,3.266,-9.176,-0.809,-0.020,-0.027,0.023,-223020
6.802418333,454489458,3.266,-9.176,-0.809,-0.031,0.002,0.010,-223214
6.80761225,454494679,3.266,-9.176,-0.809,-0.002,-0.023,-0.020,-222762
6.81176625,454498902,3.266,-9.176,-0.809,0.004,0.000,-0.012,-222324
6.816007,454503123,3.266,-9.176,-0.809,0.023,-0.014,0.000,-223056
6.833573375,454507344,3.266,-9.176,-0.809,0.016,-0.004,0.002,-222780
6.833648167,454511565,3.266,-9.176,-0.809,0.002,-0.004,-0.016,-223359
6.833722958,454515786,3.266,-9.211,-0.883,0.002,-0.004,-0.016,-223247
6.833797875,454519007,3.266,-9.211,-0.883,0.020,-0.021,-0.047,-222557
6.838229875,454525228,3.266,-9.211,-0.883,0.010,-0.025,0.078,-223471
6.842395583,454529450,3.266,-9.211,-0.883,0.020,0.025,0.021,-221922
6.845540208,454532671,3.266,-9.211,-0.883,0.027,0.043,0.025,-222801
6.849785333,454536892,3.266,-9.211,-0.883,0.025,0.010,-0.008,-223103
6.866885833,454541113,3.266,-9.211,-0.883,0.002,0.025,-0.008,-223136
6.866960708,454545334,3.113,-9.176,-0.922,0.002,0.025,-0.008,-222921
6.867035,454548555,3.113,-9.176,-0.922,0.010,0.014,-0.016,-222303
6.8671085,454553776,3.113,-9.176,-0.922,0.027,0.006,-0.002,-221900
6.870893208,454557997,3.113,-9.176,-0.922,-0.002,0.012,0.041,-222938
6.875183333,454562218,3.113,-9.176,-0.922,-0.029,0.033,-0.012,-222667
6.879318917,454566439,3.113,-9.176,-0.922,0.021,-0.027,-0.049,-222318
6.883500208,454570660,3.113,-9.176,-0.922,0.010,-0.068,-0.031,-223128
6.90019375,454575881,3.152,-9.016,-1.113,0.010,-0.068,-0.031,-222958
6.900268958,454579102,3.152,-9.016,-1.113,0.020,-0.059,0.078,-222945
6.900343083,454584323,3.152,-9.016,-1.113,0.018,-0.004,0.031,-222908
6.901493292,454588544,3.152,-9.016,-1.113,-0.006,0.010,-0.031,-222924
6.9067205,454593765,3.152,-9.016,-1.113,-0.012,-0.025,-0.086,-223176
6.910932208,454597986,3.152,-9.016,-1.113,-0.025,-0.012,-0.055,-222479
6.916139667,454603207,3.152,-9.016,-1.113,-0.014,-0.027,0.064,-223101
6.933573333,454606428,3.305,-9.133,-0.809,-0.014,-0.027,0.064,-222772
6.933649625,454610650,3.305,-9.133,-0.809,-0.027,-0.006,-0.004,-223107
6.933726375,454613870,3.305,-9.094,-0.961,-0.027,-0.006,-0.004,-222411
6.933801583,454618091,3.305,-9.094,-0.961,-0.021,0.002,-0.049,-222851
6.936247208,454623312,3.305,-9.094,-0.961,-0.041,0.021,-0.014,-222485
6.9404675,454627533,3.305,-9.094,-0.961,-0.033,0.025,0.006,-223113
6.944639958,454631754,3.305,-9.094,-0.961,-0.029,0.025,0.031,-223356
6.948911375,454635975,3.305,-9.094,-0.961,-0.031,0.041,0.029,-223397
6.9668955,454641196,3.266,-9.176,-1.113,-0.031,0.041,0.029,-222732
6.966971792,454644417,3.266,-9.176,-1.113,-0.033,0.047,-0.055,-223002
6.967048208,454649638,3.266,-9.176,-1.113,-0.021,0.045,-0.014,-222828
6.967131,454653859,3.266,-9.176,-1.113,-0.045,0.049,0.000,-222838
6.972061167,454659080,3.266,-9.176,-1.113,-0.020,0.043,0.000,-223156
6.976223542,454663301,3.266,-9.176,-1.113,-0.006,0.027,-0.049,-223179
6.980471625,454667522,3.266,-9.176,-1.113,-0.031,0.049,-0.090,-222515
6.983610083,454670743,3.305,-9.254,-0.922,-0.031,0.049,-0.090,-223579
7.000263292,454673964,3.305,-9.254,-0.922,-0.002,0.043,-0.041,-222849
7.000349625,454680185,3.305,-9.254,-0.922,0.021,0.027,0.055,-222200
7.000423167,454684406,3.305,-9.254,-0.922,0.037,0.033,0.053,-223108
7.001599,454688627,3.305,-9.254,-0.922,0.045,0.006,0.023,-223229
7.005798083,454692848,3.305,-9.254,-0.922,0.047,0.000,-0.064,-223292
7.01000075,454697069,3.305,-9.254,-0.922,0.031,0.023,-0.072,-221859
7.015178833,454702290,3.074,-9.094,-1.113,0.031,0.023,-0.072,-222973
7.033581917,454705511,3.074,-9.094,-1.113,-0.010,0.033,0.010,-222704
7.0336555,454710732,3.074,-9.094,-1.113,-0.014,0.016,0.004,-222767
7.033729292,454713953,3.227,-9.176,-0.691,-0.014,0.016,0.004,-222860
7.033805083,454718174,3.227,-9.176,-0.691,0.014,-0.016,-0.045,-222952
7.036308958,454723395,3.227,-9.176,-0.691,0.002,0.016,-0.010,-223265
7.040559667,454727616,3.227,-9.176,-0.691,-0.008,0.008,0.020,-222471
7.044686667,454731837,3.227,-9.176,-0.691,-0.004,0.014,0.076,-222023
7.048975583,454736058,3.227,-9.176,-0.691,0.002,0.002,0.033,-223032
7.066895708,454741279,3.227,-9.016,-1.039,0.002,0.002,0.033,-222654
7.06698225,454743500,3.227,-9.016,-1.039,0.027,-0.041,-0.020,-222733
7.067066125,454748721,3.227,-9.016,-1.039,-0.004,-0.012,0.035,-222358
7.067149667,454752942,3.227,-9.016,-1.039,-0.020,-0.004,0.031,-222877
7.071120583,454758163,3.227,-9.016,-1.039,-0.027,0.006,0.004,-221881
7.076323958,454763384,3.227,-9.016,-1.039,-0.014,0.002,0.018,-222022
7.0814645,454768605,3.227,-9.016,-1.039,0.002,-0.029,-0.004,-222199
7.100240125,454772826,3.152,-9.172,-1.039,0.002,-0.029,-0.004,-222313
7.100316167,454776047,3.152,-9.172,-1.039,-0.008,-0.018,-0.014,-222624
7.100389167,454781268,3.152,-9.172,-1.039,-0.002,0.002,0.000,-222993
7.100463875,454785489,3.152,-9.172,-1.039,-0.010,-0.004,0.006,-223104
7.101652042,454788710,3.152,-9.172,-1.039,-0.025,0.006,0.020,-223153
7.106863833,454793931,3.152,-9.172,-1.039,-0.027,0.018,0.014,-223328
7.111103792,454798152,3.152,-9.172,-1.039,-0.014,-0.025,-0.027,-222716
7.1153165,454802373,3.191,-9.176,-0.883,-0.014,-0.025,-0.027,-222672
7.118556542,454805594,3.191,-9.176,-0.883,-0.016,-0.021,-0.031,-222852
7.133568042,454810815,3.191,-9.176,-0.883,-0.002,-0.025,0.006,-222656
7.133643083,454816036,3.191,-9.176,-0.883,0.012,-0.018,0.018,-222299
7.133717792,454820257,3.191,-9.176,-0.883,0.016,-0.002,0.021,-222500
7.137405417,454824478,3.191,-9.176,-0.883,0.006,-0.006,0.018,-221434
7.141674375,454828699,3.191,-9.176,-0.883,0.008,-0.012,0.020,-223000
7.146802042,454833920,3.227,-9.137,-1.000,0.008,-0.012,0.020,-222971
7.150169542,454837141,3.227,-9.137,-1.000,0.014,-0.012,-0.012,-221969
7.167113625,454843362,3.227,-9.137,-1.000,-0.004,0.010,-0.012,-222403
7.167203125,454847583,3.227,-9.137,-1.000,-0.021,0.006,-0.016,-222667
7.167290917,454851804,3.227,-9.137,-1.000,0.012,-0.004,-0.051,-222962
7.168891167,454856025,3.227,-9.137,-1.000,-0.004,0.006,-0.053,-222330
7.174120917,454861248,3.227,-9.137,-1.000,0.008,0.018,0.020,-222511
7.178327417,454865468,3.191,-9.137,-0.922,0.008,0.018,0.020,-222914
7.200255542,454868689,3.191,-9.137,-0.922,0.002,0.002,-0.029,-223278
7.20033225,454873910,3.191,-9.137,-0.922,-0.002,0.006,-0.037,-223041
7.200408625,454879132,3.191,-9.137,-0.922,-0.020,0.025,0.018,-222563
7.200482417,454883352,3.191,-9.137,-0.922,-0.016,0.037,0.010,-222905
7.201529625,454888573,3.191,-9.137,-0.922,-0.016,-0.016,-0.045,-222834
7.20576575,454892794,3.191,-9.137,-0.922,-0.021,-0.012,-0.043,-222086
7.209951875,454897015,3.383,-9.176,-0.730,-0.021,-0.012,-0.043,-223458
7.213124667,454900237,3.383,-9.176,-0.730,-0.012,0.012,-0.018,-222504
7.219325083,454906457,3.383,-9.176,-0.730,0.014,0.033,-0.008,-222621
7.233609375,454910678,3.383,-9.176,-0.730,-0.010,-0.010,-0.031,-222061
7.233702583,454914899,3.383,-9.176,-0.730,0.006,-0.027,-0.086,-222958
7.233778125,454920120,3.383,-9.176,-0.730,-0.020,0.002,-0.033,-223111
7.237223,454924341,3.383,-9.176,-0.730,-0.039,0.062,0.037,-222239
7.241496583,454928562,3.305,-9.133,-1.000,-0.039,0.062,0.037,-222173
7.244656042,454931783,3.305,-9.133,-1.000,-0.053,0.066,0.051,-220941
7.250965,454938004,3.305,-9.133,-1.000,0.006,-0.006,-0.100,-222349
7.26690575,454943225,3.305,-9.133,-1.000,-0.002,0.020,-0.062,-223656
7.266981,454947432,3.305,-9.133,-1.000,-0.008,-0.014,0.025,-223656
7.267055,454951652,3.305,-9.133,-1.000,-0.012,0.008,-0.006,-222673
7.268834708,454955873,3.305,-9.133,-1.000,-0.018,0.037,0.039,-222911
7.2740365,454961094,3.113,-9.172,-1.000,-0.018,0.037,0.039,-222530
7.276207708,454963315,3.113,-9.172,-1.000,0.002,-0.006,0.016,-221985
7.280477458,454967536,3.113,-9.172,-1.000,0.018,-0.014,-0.064,-222748
7.28464375,454971757,3.113,-9.172,-1.000,0.014,-0.004,-0.016,-222630
7.300253208,454975978,3.113,-9.172,-1.000,0.012,-0.025,0.008,-221535
7.300326958,454981199,3.113,-9.172,-1.000,0.016,-0.004,0.029,-222014
7.300399125,454985420,3.113,-9.172,-1.000,0.014,0.018,0.051,-222529
7.302582,454989641,3.305,-9.094,-1.000,0.014,0.018,0.051,-223037
7.305810792,454992862,3.305,-9.094,-1.000,0.008,-0.008,-0.014,-221497
7.31104375,454998083,3.305,-9.094,-1.000,0.008,0.000,-0.012,-220399
7.31524175,455002304,3.305,-9.094,-1.000,0.016,0.006,0.025,-221370
7.319441708,455006525,3.305,-9.094,-1.000,0.002,0.004,0.035,-221943
7.333581125,455010746,3.305,-9.094,-1.000,-0.016,0.031,0.020,-222367
7.333654083,455014967,3.305,-9.094,-1.000,0.027,-0.053,0.000,-221743
7.333726583,455019188,2.961,-9.055,-1.078,0.027,-0.053,0.000,-222244
7.334341,455021409,2.961,-9.055,-1.078,0.010,-0.150,-0.166,-223026
7.339586667,455026630,2.961,-9.055,-1.078,-0.033,0.105,0.354,-222222
7.343804917,455030851,2.961,-9.055,-1.078,-0.047,0.049,0.270,-222960
7.348072667,455035072,2.961,-9.055,-1.078,-0.010,0.021,-0.180,-222869
7.353290917,455040293,2.961,-9.055,-1.078,0.053,-0.100,-0.232,-222131
7.366917083,455044514,2.961,-9.055,-1.078,-0.018,-0.031,0.025,-221621
7.366994583,455048735,2.961,-9.215,-0.961,-0.018,-0.031,0.025,-221644
7.367070333,455051941,2.961,-9.215,-0.961,-0.043,-0.006,0.115,-221644
7.371034542,455058161,2.961,-9.215,-0.961,0.004,0.021,0.006,-222152
7.376274667,455063382,2.961,-9.215,-0.961,0.006,-0.043,-0.154,-223062
7.38054825,455067603,2.961,-9.215,-0.961,-0.004,-0.021,-0.037,-223164
7.38477225,455071824,2.961,-9.215,-0.961,-0.025,0.041,0.152,-221333
7.400455042,455076045,2.961,-9.215,-0.961,-0.041,0.016,0.127,-222488
7.40054925,455081266,3.266,-9.211,-0.883,-0.041,0.016,0.127,-222567
7.400643542,455083487,3.266,-9.211,-0.883,-0.002,-0.016,-0.053,-223505
7.400738542,455087708,3.266,-9.211,-0.883,-0.010,-0.029,-0.143,-222572
7.404815167,455091929,3.266,-9.211,-0.883,-0.021,0.006,-0.031,-222965
7.409118,455096150,3.266,-9.211,-0.883,-0.014,0.008,0.045,-222247
7.414331167,455101371,3.266,-9.211,-0.883,0.008,-0.014,0.057,-222470
7.418468083,455105592,3.266,-9.211,-0.883,0.010,-0.012,0.021,-221493
7.433745833,455109813,3.266,-9.176,-0.961,0.010,-0.012,0.021,-221314
7.433842875,455113034,3.266,-9.176,-0.961,0.016,-0.027,-0.051,-222193
7.433938583,455118255,3.266,-9.176,-0.961,0.023,0.002,-0.027,-221896
7.436482875,455123476,3.266,-9.176,-0.961,0.035,0.010,0.004,-221941
7.440641042,455127697,3.266,-9.176,-0.961,0.014,-0.027,-0.027,-221872
7.444906708,455131918,3.266,-9.176,-0.961,0.018,-0.020,-0.025,-222890
7.450094042,455137139,3.266,-9.176,-0.961,0.006,0.053,0.012,-222302
7.466887833,455142359,3.305,-9.020,-0.961,0.006,0.053,0.012,-221782
7.4669815,455145580,3.305,-9.020,-0.961,-0.012,0.014,0.020,-222696
7.467075083,455150801,3.305,-9.020,-0.961,0.008,-0.010,-0.070,-222540
7.468003542,455155021,3.305,-9.020,-0.961,0.025,0.010,-0.035,-221489
7.471188583,455158244,3.305,-9.020,-0.961,0.018,0.018,0.023,-222224
7.476409375,455163464,3.305,-9.020,-0.961,-0.008,0.061,0.076,-222627
7.4816425,455168685,3.305,-9.020,-0.961,-0.008,0.049,0.037,-222343
7.48685625,455173906,3.152,-9.137,-0.961,-0.008,0.049,0.037,-221845
7.500252333,455176127,3.152,-9.137,-0.961,0.025,-0.033,-0.094,-221583
7.50032475,455181348,3.152,-9.137,-0.961,0.010,0.037,0.041,-222272
7.500397042,455185569,3.152,-9.137,-0.961,0.002,0.020,0.082,-222002
7.502718042,455189789,3.152,-9.137,-0.961,-0.004,0.016,0.035,-221786
7.506967833,455194010,3.152,-9.137,-0.961,-0.008,0.010,-0.031,-222545
7.511115583,455198231,3.152,-9.137,-0.961,0.006,0.012,-0.035,-222123
7.515330917,455202452,3.113,-9.098,-1.039,0.006,0.012,-0.035,-222811
7.533574792,455205673,3.113,-9.098,-1.039,0.002,0.002,-0.006,-222051
