pc_time_s,teensy_time_us,ax,ay,az,gx,gy,gz,load_raw
2.211959625,38013577,3.383,-8.980,-1.535,0.000,0.000,0.000,-222230
2.21422625,38015884,3.305,-8.977,-1.535,0.000,0.000,0.000,-221837
2.218403042,38020121,3.305,-8.977,-1.535,0.000,0.000,0.000,-221652
2.22061225,38022341,3.305,-8.977,-1.535,0.002,0.002,0.008,-222328
2.224935167,38026562,3.305,-8.977,-1.535,-0.002,0.000,0.000,-222154
2.233790542,38030783,3.305,-8.977,-1.535,-0.004,0.000,0.006,-221708
2.234304833,38036004,3.305,-8.977,-1.535,0.004,0.004,0.004,-222247
2.237502667,38039225,3.344,-8.980,-1.535,0.004,0.004,0.004,-222115
2.24275525,38044446,3.344,-8.980,-1.535,-0.006,0.000,-0.006,-221141
2.246949792,38048667,3.344,-8.980,-1.535,0.002,-0.006,0.004,-222097
2.251175875,38052888,3.344,-8.980,-1.535,-0.002,0.002,0.004,-222301
2.255405833,38057109,3.344,-8.980,-1.535,0.000,0.002,-0.002,-221912
2.259616625,38061330,3.344,-8.980,-1.535,0.006,-0.002,0.010,-222265
2.267337167,38065551,3.422,-8.977,-1.496,0.006,-0.002,0.010,-221426
2.26740875,38067772,3.422,-8.977,-1.496,0.002,0.004,-0.014,-221939
2.270271625,38071993,3.422,-8.977,-1.496,0.010,0.000,-0.002,-222605
2.274550542,38076214,3.422,-8.977,-1.496,-0.014,-0.002,0.004,-222399
2.278848417,38080435,3.422,-8.977,-1.496,0.000,0.008,0.010,-221525
2.283950292,38085656,3.422,-8.977,-1.496,0.002,0.000,0.006,-221704
2.2892335,38090877,3.422,-8.977,-1.496,-0.006,0.006,0.000,-222309
2.294445833,38096098,3.344,-8.977,-1.574,-0.006,0.006,0.000,-222419
2.297606417,38099319,3.344,-8.977,-1.574,0.004,-0.002,-0.012,-221664
2.303846125,38105540,3.344,-8.977,-1.574,0.006,-0.006,-0.006,-222347
2.308064333,38109761,3.344,-8.977,-1.574,-0.004,0.000,0.006,-222820
2.312329417,38113982,3.344,-8.977,-1.574,0.018,-0.002,-0.008,-222067
2.317553833,38119203,3.344,-8.977,-1.574,0.008,-0.002,0.000,-222075
2.321943208,38123424,3.344,-8.977,-1.574,0.004,-0.006,-0.004,-221829
2.326036958,38127645,3.344,-8.980,-1.535,0.004,-0.006,-0.004,-222110
2.329267792,38130866,3.344,-8.980,-1.535,0.002,0.018,0.000,-221853
2.335411833,38137087,3.344,-8.980,-1.535,0.004,0.006,0.020,-221663
2.339683458,38141308,3.344,-8.980,-1.535,0.018,-0.002,-0.004,-221842
2.34493025,38146529,3.344,-8.980,-1.535,-0.008,-0.006,-0.012,-222543
2.349101458,38150751,3.344,-8.980,-1.535,0.004,-0.002,0.008,-222323
2.354321542,38155972,3.344,-8.980,-1.535,0.014,0.000,-0.004,-222192
2.357470958,38159193,3.344,-9.016,-1.461,0.014,0.000,-0.004,-222191
2.362814833,38164414,3.344,-9.016,-1.461,0.014,-0.002,0.006,-221824
2.366964708,38168620,3.344,-9.016,-1.461,0.010,0.006,-0.012,-221824
2.372176,38173840,3.344,-9.016,-1.461,0.000,0.002,0.004,-222096
2.376414625,38178061,3.344,-9.016,-1.461,0.006,-0.004,-0.006,-222049
2.380604875,38182282,3.344,-9.016,-1.461,0.000,-0.004,-0.014,-221618
2.384782042,38186503,3.383,-8.980,-1.535,0.000,-0.004,-0.014,-221897
2.388086583,38189724,3.383,-8.980,-1.535,0.004,-0.006,0.012,-222680
2.394327792,38195945,3.383,-8.980,-1.535,0.000,-0.002,-0.012,-221968
2.398538458,38200166,3.383,-8.980,-1.535,-0.004,-0.006,0.002,-220854
2.403230958,38204387,3.383,-8.980,-1.535,-0.002,-0.002,0.000,-221670
2.406984458,38208608,3.383,-8.980,-1.535,0.002,0.002,-0.008,-222447
2.412217958,38213829,3.383,-8.980,-1.535,0.010,0.000,-0.004,-222601
2.416430625,38218050,3.383,-8.980,-1.535,0.010,0.000,-0.004,-221740
2.419618042,38221271,3.383,-8.980,-1.535,0.004,0.006,0.010,-221804
2.424868167,38226492,3.383,-8.980,-1.535,0.010,-0.008,0.006,-221479
2.42916625,38230716,3.383,-8.980,-1.535,-0.004,-0.004,0.006,-221403
2.434367458,38235936,3.383,-8.980,-1.535,0.002,0.002,0.006,-221848
2.438638375,38240157,3.383,-8.980,-1.535,-0.008,-0.006,-0.004,-222230
2.442783333,38244378,3.383,-8.980,-1.535,-0.008,0.008,-0.002,-222617
2.446991667,38248599,3.344,-9.020,-1.574,-0.008,0.008,-0.002,-221449
2.45022625,38251820,3.344,-9.020,-1.574,-0.006,0.002,-0.002,-222166
2.456478958,38258041,3.344,-9.020,-1.574,0.006,-0.010,-0.010,-222088
2.460812208,38262262,3.344,-9.020,-1.574,-0.012,0.002,0.006,-221999
2.464948,38266483,3.344,-9.020,-1.574,0.006,0.000,0.004,-221688
2.469208667,38270704,3.344,-9.020,-1.574,0.002,0.000,0.000,-222488
2.475506417,38276925,3.344,-9.020,-1.574,0.006,-0.010,0.006,-222690
2.479521208,38281146,3.344,-8.941,-1.535,0.006,-0.010,0.006,-221531
2.482855917,38284367,3.344,-8.941,-1.535,0.006,-0.002,-0.002,-222498
2.488952917,38290588,3.344,-8.941,-1.535,0.002,-0.002,0.000,-222828
2.49419625,38295809,3.344,-8.941,-1.535,0.004,-0.006,-0.006,-222553
2.49837575,38300030,3.344,-8.941,-1.535,-0.010,-0.004,0.014,-221509
2.502822708,38304251,3.344,-8.941,-1.535,-0.004,-0.004,-0.006,-222286
2.506856917,38308472,3.344,-8.941,-1.535,0.010,0.004,-0.010,-222535
2.512169375,38313693,3.344,-8.980,-1.461,0.010,0.004,-0.010,-222451
2.514329,38315914,3.344,-8.980,-1.461,-0.002,-0.006,-0.012,-222011
2.518712042,38320135,3.344,-8.980,-1.461,-0.010,0.006,-0.008,-222084
2.522959458,38324358,3.344,-8.980,-1.461,0.006,0.000,0.000,-222062
2.5272475,38328579,3.344,-8.980,-1.461,-0.006,-0.010,0.010,-222499
2.532469417,38333800,3.344,-8.980,-1.461,0.002,0.002,0.008,-221614
2.536661917,38338021,3.344,-8.980,-1.461,-0.002,0.000,-0.002,-221834
2.540959625,38342242,3.383,-8.980,-1.613,-0.002,0.000,-0.002,-221898
2.544112917,38345463,3.383,-8.980,-1.613,-0.004,0.004,0.004,-221759
2.549125917,38350684,3.383,-8.980,-1.613,-0.006,-0.002,-0.004,-221669
2.554318833,38355905,3.383,-8.980,-1.613,0.002,0.002,-0.002,-221902
2.558768083,38360126,3.383,-8.980,-1.613,-0.008,-0.004,-0.008,-222466
2.562732125,38364347,3.383,-8.980,-1.613,0.006,0.006,-0.006,-221555
2.567961792,38369568,3.383,-8.980,-1.613,0.018,0.002,-0.004,-221892
2.573215667,38374789,3.383,-8.980,-1.613,0.018,0.002,-0.004,-222543
2.576470917,38378010,3.383,-8.980,-1.613,0.002,-0.004,0.004,-221584
2.581595375,38383231,3.383,-8.980,-1.613,0.004,0.006,-0.010,-221680
2.5857905,38387452,3.383,-8.980,-1.613,0.002,-0.008,0.010,-222137
2.589015833,38390673,3.383,-8.980,-1.613,0.000,-0.002,-0.012,-222584
2.5942015,38395894,3.383,-8.980,-1.613,0.002,-0.004,0.002,-221802
2.599502958,38401115,3.383,-8.980,-1.613,0.002,-0.002,0.006,-221637
2.603699333,38405336,3.344,-8.980,-1.496,0.002,-0.002,0.006,-221894
2.605967458,38407557,3.344,-8.980,-1.496,0.004,-0.002,0.004,-221827
2.612161208,38413778,3.344,-8.980,-1.496,-0.010,-0.006,0.004,-221796
2.61634675,38417999,3.344,-8.980,-1.496,0.010,0.004,0.006,-221819
2.620543375,38422220,3.344,-8.980,-1.496,-0.006,0.000,0.004,-221863
2.624773083,38426441,3.344,-8.980,-1.496,0.008,0.004,0.004,-221920
2.629020375,38430662,3.383,-8.980,-1.535,0.008,0.004,0.004,-221606
2.632210833,38433883,3.383,-8.980,-1.535,0.006,-0.006,0.012,-221315
2.637463958,38439104,3.383,-8.980,-1.535,-0.010,0.006,0.016,-221505
2.641653292,38443326,3.383,-8.980,-1.535,-0.010,-0.004,0.000,-222209
2.645909958,38447548,3.383,-8.980,-1.535,0.002,-0.006,-0.008,-222324
2.651118458,38452769,3.383,-8.980,-1.535,-0.002,-0.004,0.000,-222321
2.655325625,38456990,3.383,-8.980,-1.535,0.002,-0.004,0.006,-222336
2.65959725,38461211,3.383,-8.980,-1.496,0.002,-0.004,0.006,-221914
2.662955458,38464432,3.383,-8.980,-1.496,-0.002,0.016,0.000,-221612
2.66805325,38469653,3.383,-8.980,-1.496,-0.004,0.002,-0.008,-222383
2.6732715,38474874,3.383,-8.980,-1.496,0.002,0.008,0.000,-222070
2.677428625,38479095,3.383,-8.980,-1.496,0.006,-0.004,-0.002,-221973
2.681726875,38483316,3.383,-8.980,-1.496,-0.014,-0.006,0.010,-221012
2.685872417,38487537,3.383,-8.980,-1.496,-0.008,0.012,0.000,-222269
2.689094542,38490758,3.383,-8.980,-1.613,-0.008,0.012,0.000,-222286
2.692201542,38493979,3.383,-8.980,-1.613,0.002,-0.006,0.000,-223072
2.697597667,38499200,3.383,-8.980,-1.613,0.010,0.002,-0.008,-222573
2.701781333,38503421,3.383,-8.980,-1.613,-0.008,0.000,-0.002,-222184
2.705047708,38506642,3.383,-8.980,-1.613,-0.006,-0.004,0.008,-222072
2.7094015,38510863,3.383,-8.980,-1.613,-0.002,0.000,-0.002,-222336
2.714504292,38516084,3.383,-8.980,-1.613,-0.004,0.002,0.010,-221781
2.718699583,38520305,3.383,-9.016,-1.535,-0.004,0.002,0.010,-221904
2.721915542,38523526,3.383,-9.016,-1.535,0.008,0.002,-0.002,-221713
2.727687667,38528748,3.383,-9.016,-1.535,0.004,0.002,0.004,-221406
2.732403667,38533969,3.383,-9.016,-1.535,-0.004,0.002,0.006,-221854
2.737605417,38539190,3.383,-9.016,-1.535,0.014,-0.012,-0.004,-222455
2.74321,38544411,3.344,-8.980,-1.496,0.014,-0.012,-0.004,-221899
2.745989292,38547632,3.344,-8.980,-1.496,0.000,0.000,-0.002,-221863
2.752203417,38553853,3.344,-8.980,-1.496,-0.002,-0.004,-0.004,-221487
2.756465208,38558074,3.344,-8.980,-1.496,-0.006,0.004,-0.008,-222234
2.760675958,38562295,3.344,-8.980,-1.496,0.002,0.002,-0.004,-221554
2.765289667,38566516,3.344,-8.980,-1.496,-0.004,0.000,0.010,-221456
2.77046275,38571737,3.344,-8.980,-1.496,0.000,-0.008,-0.002,-222020
2.774967,38575958,3.344,-8.977,-1.574,0.000,-0.008,-0.002,-222476
2.779048583,38579179,3.344,-8.977,-1.574,-0.010,0.012,0.000,-221936
2.782893083,38584400,3.344,-8.977,-1.574,-0.002,0.008,0.010,-222091
2.788057125,38589621,3.344,-8.977,-1.574,0.004,0.010,0.004,-221731
2.79227575,38593842,3.344,-8.977,-1.574,-0.010,0.000,0.000,-222306
2.796473708,38598063,3.344,-8.977,-1.574,0.010,0.006,-0.012,-222215
2.799719958,38601284,3.344,-8.977,-1.574,-0.004,-0.004,0.000,-221670
2.80390875,38605505,3.344,-8.977,-1.574,-0.004,-0.004,0.000,-222168
2.80716625,38608726,3.344,-8.977,-1.574,0.010,0.002,0.006,-222703
2.813327667,38614947,3.344,-8.977,-1.574,0.004,-0.006,-0.014,-222466
2.817532375,38619168,3.344,-8.977,-1.574,0.006,-0.006,0.016,-221987
2.821775042,38623389,3.344,-8.977,-1.574,-0.002,-0.002,-0.014,-221668
2.825843375,38627610,3.344,-8.977,-1.574,0.006,-0.008,0.010,-221585
2.830240417,38631831,3.344,-8.977,-1.574,0.004,-0.004,-0.014,-221563
2.835425792,38637052,3.344,-8.980,-1.535,0.004,-0.004,-0.014,-221914
2.838722833,38640273,3.344,-8.980,-1.535,0.002,0.002,-0.006,-222108
2.84493,38646494,3.344,-8.980,-1.535,0.012,0.008,0.000,-221772
2.849116292,38650715,3.344,-8.980,-1.535,-0.002,-0.004,0.006,-222191
2.853441792,38654936,3.344,-8.980,-1.535,-0.006,-0.006,-0.006,-222939
2.857593292,38659157,3.344,-8.980,-1.535,-0.006,-0.002,0.004,-221465
2.862915375,38664378,3.344,-8.980,-1.535,0.002,0.008,-0.008,-222162
2.867364292,38668599,3.305,-8.938,-1.535,0.002,0.008,-0.008,-221621
2.870164792,38671820,3.305,-8.938,-1.535,-0.002,0.004,-0.002,-222815
2.87455,38676041,3.305,-8.938,-1.535,-0.002,0.008,0.010,-222484
2.878656,38680262,3.305,-8.938,-1.535,-0.010,0.000,0.018,-222218
2.882912792,38684483,3.305,-8.938,-1.535,0.000,0.000,0.006,-221233
2.887194458,38688704,3.305,-8.938,-1.535,-0.004,-0.006,-0.008,-222583
2.89251375,38693925,3.305,-8.938,-1.535,0.004,-0.004,-0.006,-221867
2.896624375,38698146,3.344,-8.977,-1.574,0.004,-0.004,-0.006,-221851
2.898818833,38700367,3.344,-8.977,-1.574,0.002,-0.002,0.000,-222785
2.9032275,38704588,3.344,-8.977,-1.574,0.002,-0.002,-0.006,-222308
2.907942083,38708809,3.344,-8.977,-1.574,-0.004,-0.006,-0.018,-221863
2.91150275,38713030,3.344,-8.977,-1.574,-0.002,-0.002,0.000,-221915
2.915719042,38717251,3.344,-8.977,-1.574,-0.002,0.006,0.010,-222451
2.919928958,38721472,3.344,-8.977,-1.574,-0.004,-0.010,-0.002,-221953
2.924141875,38725693,3.305,-9.016,-1.574,-0.004,-0.010,-0.002,-222346
2.926365458,38727914,3.305,-9.016,-1.574,0.002,0.000,0.006,-221815
2.930589708,38732135,3.305,-9.016,-1.574,0.002,0.002,0.000,-221860
2.935804875,38737356,3.305,-9.016,-1.574,0.004,0.002,-0.006,-221582
2.940081417,38741577,3.305,-9.016,-1.574,-0.002,-0.004,0.006,-222499
2.945214167,38746798,3.305,-9.016,-1.574,0.000,0.000,0.004,-221693
2.949393375,38751019,3.305,-9.016,-1.574,-0.002,0.002,-0.004,-222347
2.953641917,38755240,3.305,-9.020,-1.535,-0.002,0.002,-0.004,-222745
2.956991708,38758461,3.305,-9.020,-1.535,0.010,-0.008,-0.002,-221662
2.963210917,38764682,3.305,-9.020,-1.535,-0.020,0.006,0.004,-221755
2.968449917,38769903,3.305,-9.020,-1.535,0.000,0.002,-0.004,-222058
2.9750155,38776124,3.305,-9.020,-1.535,0.000,0.002,0.000,-222285
2.978706458,38780345,3.305,-9.020,-1.535,0.002,0.000,0.000,-222094
2.982979583,38784566,3.305,-9.020,-1.535,-0.014,-0.006,-0.004,-221341
2.987176083,38788787,3.344,-9.016,-1.535,-0.014,-0.006,-0.004,-221682
2.990444333,38792008,3.344,-9.016,-1.535,0.004,-0.008,0.000,-221912
2.996665333,38798229,3.344,-9.016,-1.535,-0.006,-0.004,-0.006,-222066
3.000902042,38802450,3.344,-9.016,-1.535,0.008,0.000,0.002,-222076
3.005178375,38806671,3.344,-9.016,-1.535,-0.008,0.002,-0.006,-222264
3.010559208,38811892,3.344,-9.016,-1.535,-0.004,0.000,0.002,-222009
3.015514625,38817113,3.344,-9.016,-1.535,0.000,-0.008,0.000,-221204
3.019744208,38821334,3.383,-8.980,-1.535,0.000,-0.008,0.000,-222272
3.022959625,38824555,3.383,-8.980,-1.535,0.000,-0.008,-0.016,-222083
3.028221042,38829776,3.383,-8.980,-1.535,0.004,0.002,-0.012,-221571
3.033444667,38834997,3.383,-8.980,-1.535,0.002,0.000,-0.010,-221609
3.037625875,38839218,3.383,-8.980,-1.535,0.004,-0.014,0.004,-222271
3.041817583,38843439,3.383,-8.980,-1.535,0.006,0.000,-0.014,-221503
3.046090167,38847660,3.383,-8.980,-1.535,-0.002,-0.002,-0.002,-221517
3.050262542,38851881,3.344,-8.980,-1.496,-0.002,-0.002,-0.002,-221691
3.052417333,38854102,3.344,-8.980,-1.496,0.006,0.004,0.004,-222153
3.057891667,38859323,3.344,-8.980,-1.496,-0.008,0.006,-0.002,-221778
3.062231792,38863546,3.344,-8.980,-1.496,-0.004,-0.006,0.000,-221615
3.065460792,38866766,3.344,-8.980,-1.496,0.010,0.014,0.008,-221510
3.069724167,38870987,3.344,-8.980,-1.496,0.012,0.000,-0.004,-222043
3.074103708,38875208,3.344,-8.980,-1.496,-0.002,-0.004,-0.002,-222745
3.076842917,38878429,3.344,-8.980,-1.535,-0.002,-0.004,-0.002,-222311
3.080055,38881650,3.344,-8.980,-1.535,0.006,-0.002,-0.004,-221646
3.085202625,38886871,3.344,-8.980,-1.535,-0.014,-0.004,0.000,-222480
3.089438083,38891092,3.344,-8.980,-1.535,0.008,0.002,0.000,-221645
3.093835333,38895313,3.344,-8.980,-1.535,-0.004,-0.010,0.002,-221862
3.097933208,38899535,3.344,-8.980,-1.535,-0.010,0.010,0.000,-222170
3.102168708,38903755,3.344,-8.980,-1.535,0.000,-0.008,0.012,-221789
3.106425583,38907976,3.383,-8.977,-1.574,0.000,-0.008,0.012,-222630
3.109582833,38911197,3.383,-8.977,-1.574,0.008,-0.012,0.008,-222614
3.11479525,38916418,3.383,-8.977,-1.574,0.000,-0.008,0.010,-221575
3.119000458,38920639,3.383,-8.977,-1.574,0.006,-0.002,-0.008,-221969
3.122233542,38923860,3.383,-8.977,-1.574,0.004,0.000,0.000,-222381
3.126473167,38928081,3.383,-8.977,-1.574,0.004,0.002,-0.012,-221344
3.131699625,38933302,3.383,-8.977,-1.574,-0.010,-0.002,0.006,-221599
3.135902708,38937523,3.344,-8.941,-1.461,-0.010,-0.002,0.006,-221268
3.139133083,38940745,3.344,-8.941,-1.461,0.000,0.002,-0.002,-222051
3.144341083,38945966,3.344,-8.941,-1.461,0.004,0.010,0.006,-221838
3.148587125,38950187,3.344,-8.941,-1.461,-0.008,-0.002,-0.002,-221330
3.1538245,38955408,3.344,-8.941,-1.461,0.010,0.000,0.004,-221639
3.158029125,38959629,3.344,-8.941,-1.461,-0.010,0.000,-0.004,-222071
3.162269583,38963850,3.344,-8.941,-1.461,0.000,-0.002,-0.004,-220644
3.165592167,38967071,3.344,-9.016,-1.461,0.000,-0.002,-0.004,-222077
3.167654083,38969292,3.344,-9.016,-1.461,-0.018,0.010,0.004,-221751
3.172896625,38974513,3.344,-9.016,-1.461,-0.002,-0.004,-0.004,-222552
3.177229792,38978734,3.344,-9.016,-1.461,0.002,0.006,-0.002,-221652
3.182342375,38983955,3.344,-9.016,-1.461,0.002,-0.002,0.004,-221603
3.186529792,38988176,3.344,-9.016,-1.461,-0.004,-0.002,-0.006,-222402
3.192768417,38994397,3.344,-9.016,-1.461,-0.006,0.004,0.010,-222051
3.1969715,38998618,3.383,-9.016,-1.535,-0.006,0.004,0.010,-221818
3.200199292,39001839,3.383,-9.016,-1.535,0.002,-0.002,-0.004,-222442
3.205495167,39007060,3.383,-9.016,-1.535,0.006,-0.004,-0.004,-222189
3.209656333,39011281,3.383,-9.016,-1.535,-0.002,0.002,0.004,-222380
3.213890042,39015502,3.383,-9.016,-1.535,-0.002,0.004,-0.006,-221844
3.218136583,39019723,3.383,-9.016,-1.535,0.002,-0.002,0.002,-221905
3.223366042,39024944,3.383,-9.016,-1.535,0.002,0.004,0.008,-222842
3.227568667,39029165,3.344,-8.977,-1.574,0.002,0.004,0.008,-221328
3.230858875,39032386,3.344,-8.977,-1.574,0.008,-0.008,0.000,-222037
3.237089333,39038607,3.344,-8.977,-1.574,-0.002,0.000,-0.002,-222435
3.241265667,39042829,3.344,-8.977,-1.574,0.002,0.000,-0.008,-221877
3.244411375,39046050,3.344,-8.977,-1.574,0.006,-0.004,-0.012,-222048
3.248680667,39050271,3.344,-8.977,-1.574,0.008,-0.006,-0.002,-221953
3.2529215,39054492,3.344,-8.977,-1.574,0.000,-0.002,0.002,-221360
3.257143917,39058713,3.383,-8.980,-1.461,0.000,-0.002,0.002,-222137
3.259396208,39060934,3.383,-8.980,-1.461,0.016,0.004,-0.004,-222544
3.263668208,39065155,3.383,-8.980,-1.461,0.008,-0.004,-0.010,-223080
3.267877792,39069376,3.383,-8.980,-1.461,-0.010,0.008,-0.002,-222698
3.272235583,39073597,3.383,-8.980,-1.461,0.000,0.000,0.000,-222246
3.276594958,39077818,3.383,-8.980,-1.461,0.000,0.000,0.000,-222354
3.28044975,39082039,3.383,-8.980,-1.461,0.000,0.000,0.000,-222211
3.285710417,39087260,3.383,-8.980,-1.496,0.000,0.000,0.000,-222707
3.289015458,39090481,3.383,-8.980,-1.496,0.000,0.000,0.000,-221809
3.295362292,39096702,3.383,-8.980,-1.496,0.000,0.000,0.000,-221696
3.29960675,39100923,3.383,-8.980,-1.496,0.000,0.000,0.000,-221501
3.303838417,39105144,3.383,-8.980,-1.496,0.000,0.000,0.000,-222447
3.308889083,39109365,3.383,-8.980,-1.496,0.000,0.000,0.000,-221782
3.312926667,39114586,3.383,-8.980,-1.496,0.000,0.000,0.000,-221861
3.317212875,39118807,3.383,-8.938,-1.574,0.000,0.000,0.000,-222088
3.320457542,39122028,3.383,-8.938,-1.574,0.000,0.000,0.000,-221985
3.325703375,39127249,3.383,-8.938,-1.574,0.000,0.000,0.000,-221933
3.330976625,39132470,3.383,-8.938,-1.574,0.000,0.000,0.000,-222078
3.33535425,39136691,3.383,-8.938,-1.574,0.000,0.000,0.000,-221603
3.340704708,39141912,3.383,-8.938,-1.574,0.000,0.000,0.000,-222437
3.344490708,39146133,3.383,-8.938,-1.574,0.000,0.000,0.000,-222319
3.348748375,39150354,3.344,-8.980,-1.496,0.000,0.000,0.000,-221986
3.352258625,39153577,3.344,-8.980,-1.496,0.000,0.000,0.000,-222732
3.358319917,39159798,3.344,-8.980,-1.496,0.000,0.000,0.000,-223021
3.36245375,39164019,3.344,-8.980,-1.496,0.000,0.000,0.000,-221029
3.366746417,39168240,3.344,-8.980,-1.496,0.000,0.000,0.000,-221532
3.371944792,39173461,3.344,-8.980,-1.496,0.000,0.000,0.000,-223351
3.376114292,39177682,3.344,-8.980,-1.496,0.000,0.000,0.000,-221371
3.380312542,39181903,3.344,-8.977,-1.574,0.000,0.000,0.000,-222238
3.383506833,39185124,3.344,-8.977,-1.574,0.000,0.000,0.000,-222562
3.389887125,39191345,3.344,-8.977,-1.574,0.000,0.000,0.000,-221705
3.394945917,39196566,3.344,-8.977,-1.574,0.000,0.000,0.000,-222391
3.398207292,39199787,3.344,-8.977,-1.574,0.000,0.000,0.000,-222312
3.403384292,39205008,3.344,-8.977,-1.574,0.000,0.000,0.000,-222388
3.407760458,39209229,3.344,-8.977,-1.574,0.000,0.000,0.000,-222393
3.411811167,39213450,3.344,-8.938,-1.574,0.000,0.000,0.000,-222343
3.414031292,39215671,3.344,-8.938,-1.574,0.000,0.000,0.000,-221415
3.418286917,39219892,3.344,-8.938,-1.574,0.000,0.000,0.000,-222348
3.423552083,39225113,3.344,-8.938,-1.574,0.000,0.000,0.000,-222788
3.427739625,39229334,3.344,-8.938,-1.574,0.000,0.000,0.000,-221746
3.433091208,39234555,3.344,-8.938,-1.574,0.000,0.000,0.000,-221951
3.437351625,39238776,3.344,-8.938,-1.574,0.000,0.000,0.000,-221586
3.441367417,39242997,3.344,-8.980,-1.496,0.000,0.000,0.000,-222692
3.444620708,39246218,3.344,-8.980,-1.496,0.000,0.000,0.000,-221690
3.449924708,39251439,3.344,-8.980,-1.496,0.000,0.000,0.000,-221740
3.454185583,39255660,3.344,-8.980,-1.496,0.000,0.000,0.000,-221826
3.458399542,39259881,3.344,-8.980,-1.496,0.000,0.000,0.000,-222734
3.462755667,39264102,3.344,-8.980,-1.496,0.000,0.000,0.000,-222058
3.466995917,39268323,3.344,-8.980,-1.496,0.000,0.000,0.000,-222264
3.471623875,39272544,3.344,-8.977,-1.574,0.000,0.000,0.000,-221887
3.473182875,39274765,3.344,-8.977,-1.574,0.000,0.000,0.000,-221559
3.478385375,39279986,3.344,-8.977,-1.574,0.000,0.000,0.000,-222554
3.482697375,39284207,3.344,-8.977,-1.574,0.000,0.000,0.000,-221488
3.486975125,39288428,3.344,-8.977,-1.574,0.000,0.000,0.000,-221636
3.497321917,39298649,3.344,-8.977,-1.574,0.000,0.000,0.000,-222059
3.501602375,39302870,3.344,-8.977,-1.574,0.000,0.000,0.000,-221976
3.506669958,39307092,3.383,-8.980,-1.535,0.000,0.000,0.000,-222686
3.508020542,39309313,3.383,-8.980,-1.535,0.000,0.000,0.000,-223153
3.513968208,39315534,3.383,-8.980,-1.535,0.000,0.000,0.000,-222328
3.518225042,39319755,3.383,-8.980,-1.535,0.000,0.000,0.000,-222310
3.522529125,39323976,3.383,-8.980,-1.535,0.000,0.000,0.000,-222593
3.526709917,39328197,3.383,-8.980,-1.535,0.000,0.000,0.000,-222575
3.533089625,39334418,3.383,-8.980,-1.535,0.000,0.000,0.000,-222650
3.53729775,39338639,3.383,-9.016,-1.535,0.000,0.000,0.000,-222249
3.53996925,39340860,3.383,-9.016,-1.535,0.000,0.000,0.000,-222207
3.543470083,39345081,3.383,-9.016,-1.535,0.000,0.000,0.000,-221937
3.547718708,39349302,3.383,-9.016,-1.535,0.000,0.000,0.000,-222296
3.552948042,39354524,3.383,-9.016,-1.535,0.000,0.000,0.000,-222815
3.557158958,39358744,3.383,-9.016,-1.535,0.000,0.000,0.000,-222084
3.561363875,39362965,3.383,-9.016,-1.535,0.000,0.000,0.000,-221452
3.565647333,39367186,3.344,-8.980,-1.535,0.000,0.000,0.000,-221547
3.567853333,39369407,3.344,-8.980,-1.535,0.000,0.000,0.000,-222340
3.573541125,39374628,3.344,-8.980,-1.535,0.000,0.000,0.000,-222574
3.577316208,39378849,3.344,-8.980,-1.535,0.000,0.000,0.000,-221986
3.581486375,39383070,3.344,-8.980,-1.535,0.000,0.000,0.000,-221797
3.586715375,39388291,3.344,-8.980,-1.535,0.000,0.000,0.000,-221775
3.590838292,39392512,3.344,-8.980,-1.535,0.000,0.000,0.000,-222348
3.596119917,39397733,3.344,-8.980,-1.496,0.000,0.000,0.000,-221930
3.598322667,39399954,3.344,-8.980,-1.496,0.000,0.000,0.000,-222112
3.60257375,39404175,3.344,-8.980,-1.496,0.000,0.000,0.000,-222307
3.606934542,39408396,3.344,-8.980,-1.496,0.000,0.000,0.000,-221926
3.611917042,39413617,3.344,-8.980,-1.496,0.000,0.000,0.000,-222232
3.616267708,39417838,3.344,-8.980,-1.496,0.000,0.000,0.000,-222081
3.620404542,39422059,3.344,-8.980,-1.496,0.000,0.000,0.000,-221882
3.625707083,39427280,3.344,-8.977,-1.574,0.000,0.000,0.000,-221769
3.627887458,39429501,3.344,-8.977,-1.574,0.000,0.000,0.000,-222555
3.634139708,39434722,3.344,-8.977,-1.574,0.000,0.000,0.000,-222577
3.637305083,39438943,3.344,-8.977,-1.574,0.000,0.000,0.000,-222242
3.642574167,39444164,3.344,-8.977,-1.574,0.000,0.000,0.000,-221814
3.646792875,39448385,3.344,-8.977,-1.574,0.000,0.000,0.000,-221922
3.653004333,39454606,3.344,-8.977,-1.574,0.000,0.000,0.000,-223119
3.657226792,39458827,3.344,-9.016,-1.496,0.000,0.000,0.000,-222497
3.659442125,39461048,3.344,-9.016,-1.496,0.000,0.000,0.000,-223325
3.663667417,39465269,3.344,-9.016,-1.496,0.000,0.000,0.000,-222897
3.667870917,39469491,3.344,-9.016,-1.496,0.000,0.000,0.000,-222049
3.673262,39474712,3.344,-9.016,-1.496,0.000,0.000,0.000,-222687
3.677290667,39478933,3.344,-9.016,-1.496,0.000,0.000,0.000,-222627
3.681545875,39483154,3.344,-9.016,-1.496,0.000,0.000,0.000,-222228
3.685872875,39487375,3.344,-8.980,-1.535,0.000,0.000,0.000,-222782
3.688087708,39489596,3.344,-8.980,-1.535,0.000,0.000,0.000,-222162
3.694488917,39495817,3.344,-8.980,-1.535,0.000,0.000,0.000,-222096
3.698385792,39500038,3.344,-8.980,-1.535,0.000,0.000,0.000,-221991
3.703744333,39504259,3.344,-8.980,-1.535,0.000,0.000,0.000,-222366
3.707826667,39509480,3.344,-8.980,-1.535,0.000,0.000,0.000,-221748
3.713131875,39514701,3.344,-8.980,-1.535,0.000,0.000,0.000,-222706
3.717423875,39518922,3.383,-9.016,-1.461,0.000,0.000,0.000,-222344
3.719591125,39521143,3.383,-9.016,-1.461,0.000,0.000,0.000,-222204
3.723704417,39525364,3.383,-9.016,-1.461,0.000,0.000,0.000,-222354
3.728485125,39529585,3.383,-9.016,-1.461,0.000,0.000,0.000,-221843
3.733462333,39534806,3.383,-9.016,-1.461,0.000,0.000,0.000,-222236
3.738465083,39540027,3.383,-9.016,-1.461,0.000,0.000,0.000,-222179
3.744638375,39546248,3.383,-9.016,-1.461,0.000,0.000,0.000,-222101
3.747921708,39549469,3.344,-8.941,-1.535,0.000,0.000,0.000,-222064
3.751178958,39552690,3.344,-8.941,-1.535,0.000,0.000,0.000,-222221
3.757572375,39558911,3.344,-8.941,-1.535,0.000,0.000,0.000,-221662
3.7617475,39563132,3.344,-8.941,-1.535,0.000,0.000,0.000,-222003
3.765817458,39567353,3.344,-8.941,-1.535,0.000,0.000,0.000,-221720
3.771161792,39572574,3.344,-8.941,-1.535,0.000,0.000,0.000,-221658
3.776305917,39577795,3.344,-8.941,-1.535,0.000,0.000,0.000,-222051
3.780378208,39582016,3.344,-8.980,-1.496,0.000,0.000,0.000,-222027
3.7835635,39585237,3.344,-8.980,-1.496,0.000,0.000,0.000,-221140
3.789911125,39591458,3.344,-8.980,-1.496,0.000,0.000,0.000,-222485
3.795121333,39596679,3.344,-8.980,-1.496,0.000,0.000,0.000,-222000
3.799356417,39600900,3.344,-8.980,-1.496,0.000,0.000,0.000,-221210
3.803526167,39605121,3.344,-8.980,-1.496,0.000,0.000,0.000,-222535
3.808705167,39609342,3.344,-8.980,-1.496,0.000,0.000,0.000,-223093
3.813004417,39614563,3.383,-8.980,-1.535,0.000,0.000,0.000,-222185
3.816202625,39617784,3.383,-8.980,-1.535,0.000,0.000,0.000,-222301
3.821467417,39623005,3.383,-8.980,-1.535,0.000,0.000,0.000,-222755
3.825664292,39627226,3.383,-8.980,-1.535,0.000,0.000,0.000,-221863
3.829873875,39631447,3.383,-8.980,-1.535,0.000,0.000,0.000,-221943
3.834134083,39635668,3.383,-8.980,-1.535,0.000,0.000,0.000,-221853
3.838313083,39639889,3.383,-8.980,-1.535,0.000,0.000,0.000,-222101
3.84287775,39644110,3.305,-8.977,-1.535,0.000,0.000,0.000,-222788
3.845765958,39647331,3.305,-8.977,-1.535,0.000,0.000,0.000,-221861
3.851996625,39653552,3.305,-8.977,-1.535,0.000,0.000,0.000,-222606
3.856119,39657773,3.305,-8.977,-1.535,0.000,0.000,0.000,-222249
3.860630625,39661994,3.305,-8.977,-1.535,0.000,0.000,0.000,-221922
3.865812292,39667215,3.305,-8.977,-1.535,0.000,0.000,0.000,-222045
3.869772083,39671436,3.305,-8.977,-1.535,0.000,0.000,0.000,-222258
3.874339375,39675657,3.344,-8.980,-1.535,0.000,0.000,0.000,-222813
3.876279292,39677878,3.344,-8.980,-1.535,0.000,0.000,0.000,-222515
3.881532042,39683099,3.344,-8.980,-1.535,0.000,0.000,0.000,-221179
3.885792292,39687320,3.344,-8.980,-1.535,0.000,0.000,0.000,-222464
3.889981917,39691541,3.344,-8.980,-1.535,0.000,0.000,0.000,-221974
3.894201333,39695762,3.344,-8.980,-1.535,0.000,0.000,0.000,-222008
3.898438458,39699983,3.344,-8.980,-1.535,0.000,0.000,0.000,-221349
3.900849125,39702204,3.344,-8.980,-1.535,0.000,0.000,0.000,-222229
3.906029333,39707425,3.344,-8.980,-1.535,0.000,0.000,0.000,-221905
3.911058125,39712646,3.344,-8.980,-1.535,0.000,0.000,0.000,-222401
3.915548625,39716867,3.344,-8.980,-1.535,0.000,0.000,0.000,-221674
3.920603125,39722088,3.344,-8.980,-1.535,0.000,0.000,0.000,-221283
3.925904417,39727309,3.344,-8.980,-1.535,0.000,0.000,0.000,-222588
3.9300335,39731530,3.344,-8.980,-1.535,0.000,0.000,0.000,-222089
3.933399,39734751,3.344,-8.980,-1.535,0.000,0.000,0.000,-222107
3.938427833,39739972,3.344,-8.980,-1.535,0.000,0.000,0.000,-222380
3.943261375,39744193,3.344,-8.980,-1.535,0.000,0.000,0.000,-222082
3.945896625,39747414,3.344,-8.980,-1.535,0.000,0.000,0.000,-221738
3.949952583,39751635,3.344,-8.980,-1.535,0.000,0.000,0.000,-221492
3.955299042,39756856,3.344,-8.980,-1.535,0.000,0.000,0.000,-222811
3.958788708,39760077,3.344,-8.977,-1.574,0.000,0.000,0.000,-221573
3.961688083,39763298,3.344,-8.977,-1.574,0.000,0.000,0.000,-221658
3.967907333,39769521,3.344,-8.977,-1.574,0.000,0.000,0.000,-222788
3.972137333,39773741,3.344,-8.977,-1.574,0.000,0.000,0.000,-222010
3.976969833,39777962,3.344,-8.977,-1.574,0.000,0.000,0.000,-222772
3.980652083,39782183,3.344,-8.977,-1.574,0.000,0.000,0.000,-221358
3.985838167,39787404,3.344,-8.977,-1.574,0.000,0.000,0.000,-221318
3.9900625,39791625,3.344,-8.980,-1.535,0.000,0.000,0.000,-222345
3.993627875,39794846,3.344,-8.980,-1.535,0.000,0.000,0.000,-222356
3.998474708,39800067,3.344,-8.980,-1.535,0.000,0.000,0.000,-222064
4.006442958,39807288,3.344,-8.980,-1.535,0.000,0.000,0.000,-222015
4.009949917,39811509,3.344,-8.980,-1.535,0.000,0.000,0.000,-222712
4.015166917,39816731,3.344,-8.980,-1.535,0.000,0.000,0.000,-221533
4.020425042,39821952,3.344,-8.980,-1.535,0.000,0.000,0.000,-222396
4.023603375,39825173,3.344,-8.977,-1.574,0.000,0.000,0.000,-221898
4.025803458,39827394,3.344,-8.977,-1.574,0.000,0.000,0.000,-222162
4.031013167,39832615,3.344,-8.977,-1.574,0.000,0.000,0.000,-221857
4.035222542,39836836,3.344,-8.977,-1.574,0.000,0.000,0.000,-222622
4.038515875,39840057,3.344,-8.977,-1.574,0.000,0.000,0.000,-222371
4.042691625,39844278,3.344,-8.977,-1.574,0.000,0.000,0.000,-221567
4.046933167,39848499,3.344,-8.977,-1.574,0.000,0.000,0.000,-221795
4.051101583,39852720,3.383,-8.980,-1.535,0.000,0.000,0.000,-221162
4.054288083,39855926,3.383,-8.980,-1.535,0.000,0.000,0.000,-221162
4.060683625,39862146,3.383,-8.980,-1.535,0.000,0.000,0.000,-221534
4.064922917,39866367,3.383,-8.980,-1.535,0.000,0.000,0.000,-222159
4.069222458,39870588,3.383,-8.980,-1.535,0.000,0.000,0.000,-221876
4.075112542,39875809,3.383,-8.980,-1.535,0.000,0.000,0.000,-222522
4.07843225,39880030,3.383,-8.980,-1.535,0.000,0.000,0.000,-221946
4.083141458,39884251,3.344,-8.980,-1.461,0.000,0.000,0.000,-221930
4.085957958,39887472,3.344,-8.980,-1.461,0.000,0.000,0.000,-221727
4.092183417,39893693,3.344,-8.980,-1.461,0.000,0.000,0.000,-222506
4.096378917,39897914,3.344,-8.980,-1.461,0.000,0.000,0.000,-222045
4.100483208,39902135,3.344,-8.980,-1.461,0.000,0.000,0.000,-221663
4.105968167,39907356,3.344,-8.980,-1.461,0.000,0.000,0.000,-221923
4.109953875,39911577,3.344,-8.980,-1.461,0.000,0.000,0.000,-221874
4.114201708,39915798,3.383,-9.016,-1.496,0.000,0.000,0.000,-221761
4.117377958,39919019,3.383,-9.016,-1.496,0.000,0.000,0.000,-221674
4.123607292,39925240,3.383,-9.016,-1.496,0.000,0.000,0.000,-222301
4.127785333,39929461,3.383,-9.016,-1.496,0.000,0.000,0.000,-222076
4.133284875,39934682,3.383,-9.016,-1.496,0.000,0.000,0.000,-221240
4.1372985,39938903,3.383,-9.016,-1.496,0.000,0.000,0.000,-221849
4.141801,39943124,3.383,-9.016,-1.496,0.000,0.000,0.000,-221836
4.14576475,39947345,3.344,-8.977,-1.574,0.000,0.000,0.000,-221624
4.148987125,39950566,3.344,-8.977,-1.574,0.000,0.000,0.000,-221476
4.155186583,39956787,3.344,-8.977,-1.574,0.000,0.000,0.000,-222931
4.159448208,39961008,3.344,-8.977,-1.574,0.000,0.000,0.000,-221370
4.162679125,39964229,3.344,-8.977,-1.574,0.000,0.000,0.000,-220998
4.166912792,39968450,3.344,-8.977,-1.574,0.000,0.000,0.000,-222697
4.171054083,39972671,3.344,-8.977,-1.574,0.000,0.000,0.000,-221774
4.175252833,39976892,3.344,-9.016,-1.535,0.000,0.000,0.000,-221604
4.178482833,39980113,3.344,-9.016,-1.535,0.000,0.000,0.000,-222063
4.183738792,39985334,3.344,-9.016,-1.535,0.000,0.000,0.000,-221650
4.187937292,39989555,3.344,-9.016,-1.535,0.000,0.000,0.000,-222453
4.19315875,39994776,3.344,-9.016,-1.535,0.000,0.000,0.000,-221855
4.198373042,39999997,3.344,-9.016,-1.535,0.000,0.000,0.000,-222141
4.202674583,40004218,3.344,-9.016,-1.535,0.000,0.000,0.000,-221931
4.2058475,40007439,3.344,-9.016,-1.535,0.000,0.000,0.000,-221975
4.208068792,40009660,3.344,-9.016,-1.535,0.000,0.000,0.000,-221678
4.213268583,40014881,3.344,-9.016,-1.535,0.000,0.000,0.000,-221729
4.218490958,40020102,3.344,-9.016,-1.535,0.000,0.000,0.000,-221591
4.223725083,40025323,3.383,-9.016,-1.613,0.000,0.000,0.000,-221324
4.225955875,40027544,3.383,-9.016,-1.613,0.000,0.000,0.000,-222289
4.231232917,40032765,3.383,-9.016,-1.613,0.000,0.000,0.000,-221478
4.235521708,40036986,3.383,-9.016,-1.613,0.000,0.000,0.000,-221100
4.239598375,40041207,3.383,-9.016,-1.613,0.000,0.000,0.000,-222745
4.243928708,40045428,3.383,-9.016,-1.613,0.000,0.000,0.000,-221879
4.248024042,40049649,3.383,-9.016,-1.613,0.000,0.000,0.000,-221223
4.25529075,40056870,3.344,-8.977,-1.574,0.000,0.000,0.000,-222190
4.257551917,40059091,3.344,-8.977,-1.574,0.000,0.000,0.000,-221799
4.2617705,40063312,3.344,-8.977,-1.574,0.000,0.000,0.000,-222093
4.266117458,40067533,3.344,-8.977,-1.574,0.000,0.000,0.000,-221940
4.270270042,40071754,3.344,-8.977,-1.574,0.000,0.000,0.000,-221658
4.274349833,40075975,3.344,-8.977,-1.574,0.000,0.000,0.000,-222328
4.278645417,40080196,3.383,-8.980,-1.496,0.000,0.000,0.000,-221846
4.280788458,40082417,3.383,-8.980,-1.496,0.000,0.000,0.000,-222004
4.286070583,40087638,3.383,-8.980,-1.496,0.000,0.000,0.000,-221516
4.291431958,40092859,3.383,-8.980,-1.496,0.000,0.000,0.000,-222023
4.296773792,40098080,3.383,-8.980,-1.496,0.000,0.000,0.000,-221799
4.300992167,40102301,3.383,-8.980,-1.496,0.000,0.000,0.000,-222139
4.305178583,40106522,3.383,-8.980,-1.496,0.000,0.000,0.000,-222159
4.309179625,40110743,3.383,-8.977,-1.574,0.000,0.000,0.000,-222270
4.312374292,40113964,3.383,-8.977,-1.574,0.000,0.000,0.000,-222326
4.318862542,40120185,3.383,-8.977,-1.574,0.000,0.000,0.000,-221898
4.322875,40124406,3.383,-8.977,-1.574,0.000,0.000,0.000,-221746
4.326088667,40127627,3.383,-8.977,-1.574,0.000,0.000,0.000,-222048
4.330399083,40131848,3.383,-8.977,-1.574,0.000,0.000,0.000,-221832
4.334745,40136069,3.383,-8.977,-1.574,0.000,0.000,0.000,-222258
4.33797375,40139290,3.383,-9.016,-1.535,0.000,0.000,0.000,-223150
4.339998542,40141511,3.383,-9.016,-1.535,0.000,0.000,0.000,-222102
4.344096708,40145733,3.383,-9.016,-1.535,0.000,0.000,0.000,-221938
4.348377417,40149954,3.383,-9.016,-1.535,0.000,0.000,0.000,-221400
4.353647333,40155175,3.383,-9.016,-1.535,0.000,0.000,0.000,-222379
4.358081792,40159396,3.383,-9.016,-1.535,0.000,0.000,0.000,-221581
4.362326458,40163617,3.383,-9.016,-1.535,0.000,0.000,0.000,-221843
4.365440292,40166838,3.383,-9.016,-1.496,0.000,0.000,0.000,-221929
4.367487417,40169059,3.383,-9.016,-1.496,0.000,0.000,0.000,-221677
4.373678042,40175280,3.383,-9.016,-1.496,0.000,0.000,0.000,-221862
4.377919208,40179501,3.383,-9.016,-1.496,0.000,0.000,0.000,-221681
4.381101875,40182722,3.383,-9.016,-1.496,0.000,0.000,0.000,-222146
4.385370833,40186943,3.383,-9.016,-1.496,0.000,0.000,0.000,-221068
4.389583583,40191164,3.383,-9.016,-1.496,0.000,0.000,0.000,-222079
4.394056792,40195385,3.422,-9.020,-1.461,0.000,0.000,0.000,-222301
4.396019292,40197606,3.422,-9.020,-1.461,0.000,0.000,0.000,-222318
4.401295708,40202827,3.422,-9.020,-1.461,0.000,0.000,0.000,-221997
4.405432167,40207048,3.422,-9.020,-1.461,0.000,0.000,0.000,-221911
4.40868075,40210269,3.422,-9.020,-1.461,0.008,0.006,-0.018,-221716
4.413967667,40215490,3.422,-9.020,-1.461,0.035,-0.059,-0.027,-222012
4.418063208,40219711,3.422,-9.020,-1.461,0.006,-0.020,0.049,-222560
4.421385875,40222932,3.457,-8.867,-1.422,0.006,-0.020,0.049,-221590
4.425609958,40227153,3.457,-8.867,-1.422,-0.025,0.062,-0.012,-221905
4.429856083,40231374,3.305,-8.977,-1.687,-0.025,0.062,-0.012,-221524
4.435144208,40236595,3.305,-8.977,-1.687,-0.014,0.002,-0.047,-221882
4.439672042,40240816,3.305,-8.977,-1.687,0.004,-0.043,0.016,-222114
4.443492667,40245037,3.305,-8.977,-1.687,-0.002,0.006,0.086,-221641
4.447683,40249258,3.344,-8.980,-1.461,-0.002,0.006,0.086,-221179
4.449811792,40251479,3.344,-8.980,-1.461,-0.008,0.020,0.061,-221948
4.455086667,40256700,3.344,-8.980,-1.461,-0.004,0.023,-0.055,-222069
4.459358833,40260921,3.344,-8.980,-1.461,-0.020,0.016,-0.080,-222092
4.463646083,40265142,3.344,-8.980,-1.461,0.004,0.000,0.072,-221368
4.467940083,40269363,3.344,-8.980,-1.461,0.016,-0.010,0.070,-221917
4.473210375,40274584,3.344,-8.980,-1.461,-0.008,0.002,-0.020,-222196
4.47620225,40277805,3.305,-9.059,-1.496,-0.008,0.002,-0.020,-222238
4.481465792,40283026,3.305,-9.059,-1.496,-0.008,0.012,-0.018,-221367
4.485802,40287247,3.305,-9.059,-1.496,-0.014,0.006,-0.010,-221507
4.490016333,40291468,3.305,-9.059,-1.496,0.000,-0.014,0.012,-222142
4.4942195,40295689,3.305,-9.059,-1.496,0.008,-0.008,0.020,-221650
4.498702417,40299910,3.344,-8.980,-1.496,0.008,-0.008,0.020,-221927
4.500790375,40302131,3.344,-8.980,-1.496,0.004,-0.002,0.010,-222225
4.505027667,40306352,3.344,-8.980,-1.496,0.012,0.010,-0.027,-221570
4.509332,40310573,3.344,-8.980,-1.496,-0.002,-0.002,-0.010,-222177
4.513229917,40314794,3.344,-8.980,-1.496,-0.008,0.002,-0.004,-221534
4.518475917,40320015,3.344,-8.980,-1.496,0.012,0.006,0.002,-221853
4.523829292,40325236,3.344,-8.980,-1.496,-0.006,0.002,0.008,-222357
4.52916925,40330457,3.422,-9.020,-1.535,-0.006,0.002,0.008,-221314
4.532360958,40333678,3.422,-9.020,-1.535,0.004,0.002,-0.025,-221970
4.537621167,40338899,3.422,-9.020,-1.535,-0.008,0.008,0.012,-221750
4.541524417,40343120,3.422,-9.020,-1.535,0.000,-0.002,0.008,-222279
4.545750875,40347341,3.422,-9.020,-1.535,0.002,0.000,0.006,-222831
4.550985292,40352562,3.344,-9.016,-1.535,0.002,0.000,0.006,-222021
4.5541785,40355783,3.344,-9.016,-1.535,0.008,0.002,-0.004,-221126
4.56057925,40362004,3.344,-9.016,-1.535,0.004,0.010,-0.004,-221980
4.564919125,40366225,3.344,-9.016,-1.535,0.000,-0.002,-0.002,-221920
4.568204625,40369446,3.344,-9.016,-1.535,-0.004,-0.014,0.008,-222162
4.574531958,40375667,3.344,-9.016,-1.535,-0.002,-0.004,0.000,-222798
4.578313208,40379888,3.344,-9.016,-1.535,-0.002,-0.008,-0.008,-222534
4.583508458,40385109,3.344,-9.055,-1.535,-0.002,-0.008,-0.008,-221780
4.585752792,40387330,3.344,-9.055,-1.535,-0.004,-0.012,0.014,-221057
4.589903125,40391551,3.344,-9.055,-1.535,0.010,0.006,0.010,-222147
4.594136375,40395772,3.344,-9.055,-1.535,0.002,-0.006,0.000,-221358
4.5984025,40399993,3.344,-9.055,-1.535,0.012,-0.006,0.004,-222145
4.602578667,40404214,3.344,-9.055,-1.535,0.004,-0.002,0.004,-221678
4.607720292,40409435,3.344,-9.055,-1.535,0.002,0.010,0.000,-221391
4.61314325,40414656,3.344,-8.977,-1.574,0.002,0.010,0.000,-221426
4.615291625,40416877,3.344,-8.977,-1.574,0.000,0.002,-0.004,-221444
4.619442,40421098,3.344,-8.977,-1.574,-0.012,0.002,0.000,-221409
4.62373425,40425319,3.344,-8.977,-1.574,-0.004,0.002,0.008,-222192
4.629020875,40430540,3.344,-8.977,-1.574,0.008,0.004,0.006,-221971
4.633217542,40434761,3.344,-8.977,-1.574,-0.004,0.002,0.016,-221401
4.637389917,40438982,3.344,-8.977,-1.574,0.008,0.002,0.000,-221364
4.641710667,40443203,3.344,-9.016,-1.496,0.008,0.002,0.000,-221822
4.644826875,40446424,3.344,-9.016,-1.496,0.000,0.004,-0.002,-222476
4.649059833,40450645,3.344,-9.016,-1.496,0.016,0.002,0.014,-221782
4.654310042,40455866,3.344,-9.016,-1.496,0.004,0.014,0.004,-221783
4.658524667,40460087,3.344,-9.016,-1.496,0.004,0.000,0.008,-221994
4.662738,40464308,3.344,-9.016,-1.496,0.000,-0.006,-0.008,-221064
4.667092417,40468529,3.344,-9.016,-1.496,0.004,0.004,0.000,-221655
4.671243208,40472750,3.344,-8.980,-1.535,0.004,0.004,0.000,-222217
4.673370625,40474971,3.344,-8.980,-1.535,0.010,0.002,0.008,-221882
4.67860125,40480192,3.344,-8.980,-1.535,0.008,0.006,-0.010,-222429
4.682857833,40484413,3.344,-8.980,-1.535,0.000,-0.012,-0.020,-221126
4.686046083,40487634,3.344,-8.980,-1.535,0.012,-0.006,-0.002,-221576
4.690349333,40491855,3.344,-8.980,-1.535,-0.002,-0.004,0.006,-222349
4.694548792,40496076,3.344,-8.980,-1.535,-0.004,0.002,0.004,-222072
4.699510542,40500297,3.344,-8.938,-1.574,-0.004,0.002,0.004,-221893
4.700991583,40502518,3.344,-8.938,-1.574,-0.008,-0.004,0.012,-221469
4.706192833,40507739,3.344,-8.938,-1.574,-0.004,0.002,0.000,-221732
4.710852875,40511960,3.344,-8.938,-1.574,-0.008,0.006,-0.008,-221209
4.71464725,40516181,3.344,-8.938,-1.574,-0.008,-0.002,0.008,-221927
4.719046417,40520402,3.344,-8.938,-1.574,-0.006,-0.006,0.000,-220639
4.723128583,40524623,3.344,-8.938,-1.574,-0.004,-0.006,-0.004,-221391
4.727884917,40528844,3.383,-8.980,-1.496,-0.004,-0.006,-0.004,-221103
4.730802583,40532065,3.383,-8.980,-1.496,0.008,-0.004,-0.004,-222140
4.735747125,40537286,3.383,-8.980,-1.496,-0.010,0.002,-0.004,-221200
4.739929833,40541507,3.383,-8.980,-1.496,0.002,0.004,-0.016,-222419
4.743091292,40544729,3.383,-8.980,-1.496,-0.010,-0.002,-0.006,-222098
4.747405208,40548950,3.383,-8.980,-1.496,0.000,0.004,0.016,-221092
4.752824625,40554171,3.383,-8.980,-1.496,-0.006,0.012,0.000,-221359
4.757058542,40558392,3.383,-9.055,-1.535,-0.006,0.012,0.000,-222142
4.759175292,40560613,3.383,-9.055,-1.535,0.008,-0.004,-0.002,-221327
4.764410917,40565834,3.383,-9.055,-1.535,-0.004,-0.002,-0.012,-220932
4.768474625,40570055,3.383,-9.055,-1.535,0.008,-0.004,0.000,-222452
4.772665208,40574276,3.383,-9.055,-1.535,0.008,0.006,0.002,-222088
4.77731925,40578497,3.383,-9.055,-1.535,0.000,-0.004,0.008,-222478
4.781117,40582718,3.383,-9.055,-1.535,0.000,0.006,0.002,-222286
4.786350958,40587939,3.344,-8.980,-1.535,0.000,0.006,0.002,-221915
4.788574208,40590160,3.344,-8.980,-1.535,0.002,-0.002,-0.006,-222041
4.794974792,40596381,3.344,-8.980,-1.535,-0.004,0.002,-0.008,-221672
4.79909025,40600602,3.344,-8.980,-1.535,0.008,0.002,0.000,-221874
4.80500975,40605823,3.344,-8.980,-1.535,0.002,0.000,0.000,-221884
4.808437333,40610044,3.344,-8.980,-1.535,0.008,0.008,-0.004,-221860
4.8137825,40615265,3.344,-8.980,-1.535,-0.014,-0.002,-0.008,-221705
4.816972125,40618486,3.344,-9.016,-1.496,-0.014,-0.002,-0.008,-221458
4.821175875,40622707,3.344,-9.016,-1.496,0.002,-0.002,0.004,-221752
4.825427875,40626928,3.344,-8.980,-1.496,0.002,-0.002,0.004,-221867
4.827754458,40629149,3.344,-8.980,-1.496,0.012,-0.002,-0.008,-222182
4.831914667,40633370,3.344,-8.980,-1.496,0.002,0.000,0.014,-221778
4.836340292,40637591,3.344,-8.980,-1.496,-0.002,0.004,-0.006,-221347
4.840414333,40641812,3.344,-8.980,-1.496,0.010,-0.004,0.000,-222600
4.844422292,40646033,3.344,-8.980,-1.496,-0.004,0.004,0.002,-222200
4.848680833,40650256,3.344,-8.980,-1.496,0.002,0.006,-0.012,-221457
4.853859625,40655477,3.305,-8.938,-1.535,0.002,0.006,-0.012,-222196
4.856149167,40657698,3.305,-8.938,-1.535,-0.008,-0.004,0.014,-222907
4.861788417,40662919,3.305,-8.938,-1.535,-0.008,0.002,-0.004,-222649
4.865970208,40667140,3.305,-8.938,-1.535,-0.002,0.000,-0.008,-221588
4.86892125,40670361,3.305,-8.938,-1.535,0.002,-0.002,0.014,-221820
4.874097208,40675582,3.305,-8.938,-1.535,0.006,-0.004,0.004,-221508
4.87817125,40679803,3.344,-8.980,-1.535,0.006,-0.004,0.004,-221996
4.880399917,40682024,3.344,-8.980,-1.535,0.010,0.002,-0.004,-221903
4.884694583,40686245,3.344,-8.980,-1.535,0.010,0.008,-0.002,-221309
4.888894208,40690466,3.344,-8.980,-1.535,-0.002,0.006,0.002,-221997
4.893190042,40694687,3.344,-8.980,-1.535,0.014,0.006,0.000,-221772
4.897475833,40698908,3.344,-8.980,-1.535,0.008,-0.006,-0.008,-222000
4.901590667,40703129,3.344,-8.980,-1.535,-0.008,0.006,0.012,-221276
4.907262125,40708350,3.344,-8.980,-1.496,-0.008,0.006,0.012,-222652
4.909967833,40711571,3.344,-8.980,-1.496,-0.010,0.010,0.006,-222042
4.916277958,40717792,3.344,-8.980,-1.496,0.002,-0.002,-0.012,-221534
4.920501375,40722013,3.344,-8.980,-1.496,0.002,0.002,-0.006,-221782
4.924818792,40726234,3.344,-8.980,-1.496,0.008,-0.004,0.002,-221902
4.92911175,40730455,3.344,-8.980,-1.496,0.006,0.006,0.002,-221999
4.93435875,40735676,3.344,-8.980,-1.496,0.004,0.006,-0.006,-221413
4.938406,40739897,3.305,-8.977,-1.535,0.004,0.006,-0.006,-221752
4.941557,40743118,3.305,-8.977,-1.535,-0.010,-0.004,0.008,-222035
4.946830333,40748339,3.305,-8.977,-1.535,-0.004,0.004,-0.004,-221042
4.952056833,40753560,3.305,-8.977,-1.535,0.000,-0.008,0.008,-222206
4.956342,40757781,3.305,-8.977,-1.535,-0.002,-0.002,0.000,-223105
4.9619365,40763002,3.305,-8.977,-1.535,0.000,-0.010,0.008,-221037
4.96604075,40767225,3.305,-8.977,-1.535,0.004,0.012,-0.004,-221679
4.9699135,40771445,3.344,-9.016,-1.535,0.004,0.012,-0.004,-222075
4.973123,40774666,3.344,-9.016,-1.535,0.004,-0.002,0.016,-221755
4.979285333,40780887,3.344,-9.016,-1.535,-0.004,0.002,0.002,-222081
4.983479333,40785108,3.344,-9.016,-1.535,-0.002,0.000,0.008,-220781
4.987766458,40789329,3.344,-9.016,-1.535,0.000,-0.006,0.000,-221718
4.993047167,40794550,3.344,-9.016,-1.535,0.002,0.000,0.004,-221594
4.997424333,40798771,3.344,-9.016,-1.535,-0.002,-0.002,0.016,-221163
5.001508833,40802992,3.344,-8.980,-1.535,-0.002,-0.002,0.016,-222041
5.004698375,40806213,3.344,-8.980,-1.535,0.010,-0.008,0.002,-221357
5.010842583,40812434,3.344,-8.980,-1.535,-0.004,0.012,0.002,-221889
5.016130167,40817655,3.344,-8.980,-1.535,-0.010,0.010,-0.002,-221087
5.02142925,40822861,3.344,-8.980,-1.535,-0.010,-0.004,0.008,-221087
5.027760125,40828081,3.344,-9.016,-1.496,-0.010,-0.004,0.008,-221571
5.0298455,40831302,3.344,-9.016,-1.496,0.004,-0.004,-0.010,-221418
5.035983042,40837524,3.344,-9.016,-1.496,0.000,-0.006,0.008,-221385
5.040162917,40841744,3.344,-9.016,-1.496,0.000,-0.008,-0.010,-222052
5.044490167,40845965,3.344,-9.016,-1.496,0.008,-0.002,-0.006,-222395
5.048681708,40850186,3.344,-9.016,-1.496,0.010,0.006,-0.008,-221236
5.053956708,40855407,3.305,-8.941,-1.574,0.010,0.006,-0.008,-221586
5.057221875,40858628,3.305,-8.941,-1.574,-0.014,0.008,0.004,-221699
5.062450708,40863849,3.305,-8.941,-1.574,-0.010,-0.010,0.000,-221131
5.066811833,40868070,3.305,-8.941,-1.574,-0.002,0.010,0.004,-221976
5.070767333,40872291,3.305,-8.941,-1.574,0.008,-0.002,-0.006,-221886
5.075477958,40876512,3.305,-8.941,-1.574,-0.008,0.004,-0.004,-222114
5.079220583,40880733,3.422,-8.977,-1.496,-0.008,0.004,-0.004,-221118
5.081470417,40882954,3.422,-8.977,-1.496,0.004,0.012,-0.008,-221212
5.085913,40887175,3.422,-8.977,-1.496,-0.004,-0.004,0.008,-221545
5.089955167,40891396,3.422,-8.977,-1.496,0.002,-0.004,-0.010,-221780
5.094441458,40895617,3.422,-8.977,-1.496,0.008,0.006,0.004,-221640
5.098423125,40899838,3.422,-8.977,-1.496,-0.014,-0.008,0.016,-222881
5.102585875,40904059,3.422,-8.977,-1.496,0.006,-0.004,0.006,-221655
5.106816792,40908280,3.344,-8.977,-1.574,0.006,-0.004,0.006,-221719
5.109074333,40910501,3.344,-8.977,-1.574,-0.004,0.006,0.002,-222268
5.114116667,40915723,3.344,-8.977,-1.574,0.002,0.004,-0.008,-221727
5.118345208,40919944,3.344,-8.977,-1.574,0.002,0.002,0.000,-222232
5.123583,40925165,3.344,-8.977,-1.574,-0.004,-0.004,0.012,-222054
5.127817917,40929386,3.344,-8.977,-1.574,-0.006,0.002,0.004,-222346
5.133006708,40934607,3.344,-8.977,-1.574,0.006,-0.008,-0.006,-221687
5.137210542,40938828,3.344,-8.977,-1.574,0.006,-0.008,-0.006,-221933
5.14042425,40942049,3.344,-8.977,-1.574,0.000,0.004,0.006,-221844
5.145699417,40947270,3.344,-8.977,-1.574,0.006,-0.002,-0.004,-221420
5.149889833,40951491,3.344,-8.980,-1.535,0.006,-0.002,-0.004,-221663
5.153101042,40954712,3.344,-8.980,-1.535,-0.008,-0.008,0.002,-221641
5.158303792,40959933,3.344,-8.980,-1.535,0.004,-0.004,-0.006,-222915
5.162634042,40964154,3.344,-8.980,-1.535,0.004,-0.008,-0.006,-221815
5.166056333,40967375,3.344,-8.980,-1.535,0.023,0.002,0.000,-222700
5.169954208,40971596,3.344,-8.980,-1.535,-0.004,0.002,0.004,-222309
5.174202917,40975817,3.383,-9.016,-1.535,-0.004,0.002,0.004,-222268
5.177389417,40979038,3.383,-9.016,-1.535,0.010,0.004,0.012,-222595
5.182726833,40984259,3.383,-9.016,-1.535,-0.010,-0.004,0.000,-220828
5.186865042,40988480,3.383,-9.016,-1.535,0.014,-0.004,0.002,-221728
5.19209325,40993701,3.383,-9.016,-1.535,0.002,0.002,0.002,-222298
5.197285625,40998922,3.383,-9.016,-1.535,0.012,0.002,-0.004,-221987
5.201502667,41003143,3.383,-9.016,-1.535,-0.004,-0.004,0.008,-221181
5.206047125,41007364,3.305,-9.020,-1.496,-0.004,-0.004,0.008,-222305
5.208987833,41010570,3.305,-9.020,-1.496,0.004,0.006,0.004,-222305
5.215240083,41016790,3.305,-9.020,-1.496,-0.008,-0.004,0.006,-220986
5.21944275,41021011,3.305,-9.020,-1.496,0.008,0.000,-0.004,-221581
5.223664167,41025233,3.305,-9.020,-1.496,-0.008,0.008,-0.008,-222057
5.227873083,41029454,3.305,-9.020,-1.496,-0.010,-0.010,-0.006,-221642
5.232201875,41033675,3.305,-9.020,-1.496,0.002,0.004,-0.010,-221611
5.237319958,41038896,3.383,-8.980,-1.535,0.002,0.004,-0.010,-221600
5.240716167,41042117,3.383,-8.980,-1.535,-0.008,0.002,0.004,-221382
5.246770792,41048338,3.383,-8.980,-1.535,-0.010,-0.002,-0.004,-221883
5.250989167,41052559,3.383,-8.980,-1.535,-0.008,-0.014,0.002,-221800
5.255225875,41056780,3.383,-8.980,-1.535,0.008,0.004,0.000,-221957
5.259459625,41061001,3.383,-8.980,-1.535,-0.004,-0.006,0.012,-222985
5.264671083,41066222,3.383,-8.980,-1.535,-0.008,0.000,0.004,-221537
5.26894525,41070428,3.344,-9.016,-1.496,-0.008,0.000,0.004,-221537
5.272717833,41073648,3.344,-9.016,-1.496,0.002,0.010,0.010,-222692
5.278330792,41079869,3.344,-9.016,-1.496,0.006,0.002,0.002,-221944
5.282565125,41084090,3.344,-9.016,-1.496,0.004,0.002,-0.008,-221604
5.285817375,41087311,3.344,-9.016,-1.496,-0.008,-0.006,0.016,-221342
5.290103625,41091532,3.344,-9.016,-1.496,0.006,-0.004,-0.006,-221227
5.294269667,41095753,3.344,-9.016,-1.496,0.004,-0.004,0.012,-221862
5.298501208,41099974,3.305,-8.977,-1.613,0.004,-0.004,0.012,-221539
5.301730667,41103195,3.305,-8.977,-1.613,0.002,0.006,-0.002,-221969
5.3069855,41108416,3.305,-8.977,-1.613,0.010,0.008,-0.004,-221722
5.312060667,41113637,3.305,-8.977,-1.613,-0.002,0.010,-0.002,-221942
5.31625675,41117858,3.305,-8.977,-1.613,-0.008,-0.008,-0.008,-222590
5.320585458,41122079,3.305,-8.977,-1.613,-0.002,-0.002,0.006,-222158
5.324864792,41126300,3.305,-8.977,-1.613,0.010,-0.008,-0.020,-221892
5.329234542,41130521,3.344,-9.016,-1.461,0.010,-0.008,-0.020,-221742
5.332665375,41133742,3.344,-9.016,-1.461,-0.010,-0.004,0.004,-222502
5.3386595,41139963,3.344,-9.016,-1.461,0.004,-0.004,-0.004,-222597
5.343621208,41145184,3.344,-9.016,-1.461,0.002,0.002,-0.008,-221534
5.347863042,41149405,3.344,-8.941,-1.496,0.002,0.002,-0.008,-221696
5.351124333,41152611,3.344,-8.941,-1.496,0.006,-0.004,-0.006,-221696
5.357275292,41158831,3.344,-8.941,-1.496,0.014,0.002,0.008,-222599
5.361459958,41163052,3.344,-8.941,-1.496,0.012,0.002,0.000,-222310
5.366838667,41168273,3.344,-8.941,-1.496,0.000,-0.008,-0.016,-221231
5.370930625,41172494,3.344,-8.941,-1.496,0.008,0.014,-0.006,-221187
5.3761025,41177716,3.344,-8.941,-1.496,-0.010,-0.012,-0.006,-221872
5.380362708,41181937,3.383,-8.977,-1.574,-0.010,-0.012,-0.006,-221042
5.383565125,41185158,3.383,-8.977,-1.574,0.016,-0.008,0.014,-222259
5.38881525,41190379,3.383,-8.977,-1.574,-0.012,-0.002,-0.010,-222150
5.394035542,41195600,3.383,-8.977,-1.574,-0.004,0.002,0.016,-221671
5.398535958,41199821,3.383,-8.977,-1.574,-0.006,-0.004,-0.004,-221798
5.402545708,41204042,3.383,-8.977,-1.574,-0.004,-0.004,0.010,-221420
5.405801958,41207263,3.383,-8.977,-1.574,0.010,-0.012,0.012,-221953
5.410274917,41211484,3.344,-8.941,-1.496,0.010,-0.012,0.012,-221669
5.41311075,41214705,3.344,-8.941,-1.496,-0.004,0.000,0.002,-221341
5.418376042,41219926,3.344,-8.941,-1.496,0.002,0.002,-0.002,-221456
5.422600292,41224147,3.344,-8.941,-1.496,0.002,0.006,-0.020,-222198
5.427028833,41228368,3.344,-8.941,-1.496,0.000,-0.004,-0.002,-222010
5.431070042,41232589,3.344,-8.941,-1.496,-0.004,0.002,0.006,-222051
5.436360167,41237810,3.344,-8.941,-1.496,-0.002,-0.006,-0.008,-221814
5.439609667,41241031,3.344,-9.016,-1.535,-0.002,-0.006,-0.008,-222375
5.441855083,41243252,3.344,-9.016,-1.535,0.000,-0.004,0.006,-221741
5.446925708,41248473,3.344,-9.016,-1.535,-0.002,0.006,-0.002,-222015
5.451223125,41252694,3.344,-9.016,-1.535,0.000,-0.004,-0.006,-221820
5.455586875,41256915,3.344,-9.016,-1.535,0.008,0.004,0.006,-222309
5.459836792,41261136,3.344,-9.016,-1.535,0.008,0.002,-0.008,-221843
5.464049,41265357,3.344,-9.016,-1.535,-0.006,-0.008,0.008,-221753
5.467510125,41268578,3.383,-9.016,-1.496,-0.006,-0.008,0.008,-221946
5.469455833,41270799,3.383,-9.016,-1.496,0.002,0.014,-0.008,-221351
5.474793958,41276020,3.383,-9.016,-1.496,-0.010,-0.010,0.002,-221679
5.478717708,41280241,3.383,-9.016,-1.496,0.004,0.002,0.006,-221354
5.481906833,41283462,3.383,-9.016,-1.496,-0.008,-0.010,0.000,-222047
5.48616,41287683,3.383,-9.016,-1.496,0.016,0.004,0.000,-221761
5.491451333,41292904,3.383,-9.016,-1.496,-0.002,-0.006,0.014,-222226
5.496802958,41298125,3.383,-8.980,-1.496,-0.002,-0.006,0.014,-222167
5.500005333,41301346,3.383,-8.980,-1.496,0.000,-0.002,0.018,-221584
5.50523625,41306567,3.383,-8.980,-1.496,-0.010,0.004,0.002,-221189
5.509309625,41310788,3.383,-8.980,-1.496,-0.004,0.012,0.006,-221937
5.514454542,41316009,3.383,-8.980,-1.496,-0.008,0.002,-0.004,-221335
5.518693042,41320230,3.383,-8.980,-1.496,-0.006,-0.002,-0.006,-221660
5.522885833,41324451,3.383,-8.980,-1.496,0.000,0.000,-0.006,-221943
5.52610675,41327672,3.383,-9.016,-1.496,0.000,0.000,-0.006,-221857
5.52929025,41330893,3.383,-9.016,-1.496,0.004,0.006,0.004,-221670
5.534580375,41336114,3.383,-9.016,-1.496,0.000,0.002,0.000,-221962
5.539317208,41340320,3.383,-9.016,-1.496,0.000,0.004,-0.002,-221962
5.542187208,41343540,3.383,-9.016,-1.496,0.002,0.004,0.016,-222024
5.547197792,41348761,3.383,-9.016,-1.496,-0.012,0.006,-0.002,-221453
5.552480458,41353982,3.383,-9.016,-1.496,-0.010,0.006,0.000,-221771
5.556689375,41358203,3.344,-9.016,-1.496,-0.010,0.006,0.000,-221786
5.559093792,41360424,3.344,-9.016,-1.496,-0.006,0.004,-0.006,-222642
5.567412042,41368645,3.344,-9.016,-1.496,0.002,-0.010,-0.008,-221698
5.572682458,41373866,3.344,-9.016,-1.496,0.010,-0.004,-0.016,-221944
5.576496042,41378087,3.344,-9.016,-1.496,0.000,0.000,0.000,-221328
5.580678292,41382308,3.344,-9.016,-1.496,0.000,0.000,0.000,-221712
5.584921375,41386529,3.344,-8.980,-1.613,0.000,0.000,0.000,-221389
5.588161708,41389750,3.344,-8.980,-1.613,0.000,0.000,0.000,-221580
5.59436625,41395971,3.344,-8.980,-1.613,0.000,0.000,0.000,-222029
5.598570458,41400177,3.344,-8.980,-1.613,0.000,0.000,0.000,-222029
5.603866333,41405397,3.344,-8.980,-1.613,0.000,0.000,0.000,-221829
5.608397167,41409618,3.344,-8.980,-1.613,0.000,0.000,0.000,-222096
5.614273667,41415839,3.344,-8.980,-1.613,0.000,0.000,0.000,-221913
5.618477667,41420060,3.305,-8.938,-1.496,0.000,0.000,0.000,-221809
5.620697958,41422281,3.305,-8.938,-1.496,0.000,0.000,0.000,-222414
5.624906125,41426502,3.305,-8.938,-1.496,0.000,0.000,0.000,-222874
5.629142292,41430723,3.305,-8.938,-1.496,0.000,0.000,0.000,-221595
5.634387375,41435944,3.305,-8.938,-1.496,0.000,0.000,0.000,-222170
5.638556458,41440165,3.305,-8.938,-1.496,0.000,0.000,0.000,-221882
5.642819708,41444386,3.305,-8.938,-1.496,0.000,0.000,0.000,-222038
5.646029833,41447607,3.383,-8.980,-1.496,0.000,0.000,0.000,-221975
5.648251583,41449828,3.383,-8.980,-1.496,0.000,0.000,0.000,-221640
5.65244275,41454049,3.383,-8.980,-1.496,0.000,0.000,0.000,-221308
5.656703125,41458270,3.383,-8.980,-1.496,0.000,0.000,0.000,-222470
5.662022583,41463491,3.383,-8.980,-1.496,0.000,0.000,0.000,-221412
5.666107,41467713,3.383,-8.980,-1.496,0.000,0.000,0.000,-221412
5.67031225,41471934,3.383,-8.980,-1.496,0.000,0.000,0.000,-222216
5.674607125,41476155,3.305,-9.020,-1.535,0.000,0.000,0.000,-222226
5.676975625,41478376,3.305,-9.020,-1.535,0.000,0.000,0.000,-222275
5.6820245,41483597,3.305,-9.020,-1.535,0.000,0.000,0.000,-221246
5.686227083,41487818,3.305,-9.020,-1.535,0.000,0.000,0.000,-222002
5.689440292,41491039,3.305,-9.020,-1.535,0.000,0.000,0.000,-221785
5.694679625,41496260,3.305,-9.020,-1.535,0.000,0.000,0.000,-221912
5.698941417,41500481,3.305,-9.020,-1.535,0.000,0.000,0.000,-221905
5.702058042,41503702,3.344,-8.977,-1.574,0.000,0.000,0.000,-222019
5.704284375,41505923,3.344,-8.977,-1.574,0.000,0.000,0.000,-221836
5.70952125,41511144,3.344,-8.977,-1.574,0.000,0.000,0.000,-222160
5.714796875,41516365,3.344,-8.977,-1.574,0.000,0.000,0.000,-221617
5.71893975,41520586,3.344,-8.977,-1.574,0.000,0.000,0.000,-222132
5.724295375,41525810,3.344,-8.977,-1.574,0.000,0.000,0.000,-221683
5.728502792,41530031,3.344,-8.977,-1.574,0.000,0.000,0.000,-222022
5.733759292,41535252,3.344,-8.980,-1.535,0.000,0.000,0.000,-221753
5.735820042,41537473,3.344,-8.980,-1.535,0.000,0.000,0.000,-222655
5.740409542,41541694,3.344,-8.980,-1.535,0.000,0.000,0.000,-222681
5.744319792,41545915,3.344,-8.980,-1.535,0.000,0.000,0.000,-221756
5.748579458,41550136,3.344,-8.980,-1.535,0.000,0.000,0.000,-222040
5.753737125,41555357,3.344,-8.980,-1.535,0.000,0.000,0.000,-221741
5.758372708,41559578,3.422,-9.016,-1.574,0.000,0.000,0.000,-222737
5.761353833,41562799,3.422,-9.016,-1.574,0.000,0.000,0.000,-221838
5.766761375,41568020,3.422,-9.016,-1.574,0.000,0.000,0.000,-221753
5.770657458,41572241,3.422,-9.016,-1.574,0.000,0.000,0.000,-222447
5.775957667,41576462,3.422,-9.016,-1.574,0.000,0.000,0.000,-223394
5.781259875,41582683,3.422,-9.016,-1.574,0.000,0.000,0.000,-221703
5.786258167,41587889,3.422,-9.016,-1.574,0.000,0.000,0.000,-221703
5.789474667,41591109,3.383,-8.980,-1.496,0.000,0.000,0.000,-222149
5.79170525,41593330,3.383,-8.980,-1.496,0.000,0.000,0.000,-222268
5.796980667,41598551,3.383,-8.980,-1.496,0.000,0.000,0.000,-221874
5.801173375,41602772,3.383,-8.980,-1.496,0.000,0.000,0.000,-221965
5.806652208,41607993,3.383,-8.980,-1.496,0.000,0.000,0.000,-222335
5.810638458,41612214,3.383,-8.980,-1.496,0.000,0.000,0.000,-221715
5.815833333,41617435,3.383,-8.980,-1.496,0.000,0.000,0.000,-222023
5.820050833,41621656,3.344,-8.977,-1.574,0.000,0.000,0.000,-221607
5.823262417,41624877,3.344,-8.977,-1.574,0.000,0.000,0.000,-221667
5.830577083,41632098,3.344,-8.977,-1.574,0.000,0.000,0.000,-220847
5.835858333,41637319,3.344,-8.977,-1.574,0.000,0.000,0.000,-221962
5.838954,41640540,3.344,-8.977,-1.574,0.000,0.000,0.000,-222319
5.84419875,41645761,3.344,-8.977,-1.574,0.000,0.000,0.000,-221060
5.849435417,41650982,3.344,-8.977,-1.574,0.000,0.000,0.000,-221509
5.854709917,41656203,3.344,-8.938,-1.574,0.000,0.000,0.000,-222324
5.857881625,41659424,3.344,-8.938,-1.574,0.000,0.000,0.000,-221943
5.863108083,41664645,3.344,-8.938,-1.574,0.000,0.000,0.000,-222584
5.867250625,41668866,3.344,-8.938,-1.574,0.000,0.000,0.000,-222066
5.872514,41674087,3.344,-8.938,-1.574,0.000,0.000,0.000,-222390
5.876768292,41678308,3.344,-8.938,-1.574,0.000,0.000,0.000,-221724
5.881956167,41683529,3.344,-8.938,-1.574,0.000,0.000,0.000,-221716
5.886157125,41687750,3.344,-8.980,-1.535,0.000,0.000,0.000,-221269
5.889385792,41690971,3.344,-8.980,-1.535,0.000,0.000,0.000,-222337
5.895607042,41697192,3.344,-8.980,-1.535,0.000,0.000,0.000,-221965
5.899822667,41701413,3.344,-8.980,-1.535,0.000,0.000,0.000,-221354
5.904104667,41705634,3.344,-8.980,-1.535,0.000,0.000,0.000,-222848
5.908342708,41709855,3.344,-8.980,-1.535,0.000,0.000,0.000,-222212
5.913559,41715076,3.344,-8.980,-1.535,0.000,0.000,0.000,-221847
5.917706333,41719297,3.383,-8.980,-1.535,0.000,0.000,0.000,-222231
5.920927917,41722518,3.383,-8.980,-1.535,0.000,0.000,0.000,-222018
5.927157208,41728739,3.383,-8.980,-1.535,0.000,0.000,0.000,-222647
5.931345708,41732960,3.383,-8.980,-1.535,0.000,0.000,0.000,-221737
5.935555917,41737181,3.383,-8.980,-1.535,0.000,0.000,0.000,-222380
5.939832875,41741402,3.383,-8.980,-1.535,0.000,0.000,0.000,-222615
5.94433025,41745623,3.383,-8.980,-1.535,0.000,0.000,0.000,-222095
5.947209208,41748844,3.344,-8.980,-1.496,0.000,0.000,0.000,-222168
5.9504925,41752065,3.344,-8.980,-1.496,0.000,0.000,0.000,-221111
5.956697375,41758286,3.344,-8.980,-1.496,0.000,0.000,0.000,-222662
5.961157625,41762507,3.344,-8.980,-1.496,0.000,0.000,0.000,-221943
5.965392875,41766728,3.344,-8.980,-1.496,0.000,0.000,0.000,-221717
5.969323875,41770949,3.344,-8.980,-1.496,0.000,0.000,0.000,-221084
5.974903667,41776170,3.344,-8.980,-1.496,0.000,0.000,0.000,-222350
5.979577708,41780391,3.305,-9.020,-1.535,0.000,0.000,0.000,-221646
5.982050083,41783612,3.305,-9.020,-1.535,0.000,0.000,0.000,-221205
5.987251917,41788833,3.305,-9.020,-1.535,0.000,0.000,0.000,-222226
5.992488,41794054,3.305,-9.020,-1.535,0.000,0.000,0.000,-221897
5.996709875,41798275,3.305,-9.020,-1.535,0.000,0.000,0.000,-222285
6.000979667,41802497,3.305,-9.020,-1.535,0.000,0.000,0.000,-221453
6.005164167,41806717,3.305,-9.020,-1.535,0.000,0.000,0.000,-222455
6.00936,41810938,3.383,-8.980,-1.461,0.000,0.000,0.000,-222073
6.012550333,41814144,3.383,-8.980,-1.461,0.000,0.000,0.000,-222073
6.017798167,41819364,3.383,-8.980,-1.461,0.000,0.000,0.000,-222354
6.021987958,41823585,3.383,-8.980,-1.461,0.000,0.000,0.000,-222641
6.026241,41827806,3.383,-8.980,-1.461,0.000,0.000,0.000,-222226
6.030508375,41832027,3.383,-8.980,-1.461,0.000,0.000,0.000,-222347
6.035743042,41837248,3.383,-8.980,-1.461,0.000,0.000,0.000,-221392
6.039898333,41841469,3.305,-8.977,-1.613,0.000,0.000,0.000,-222802
6.043195125,41844690,3.305,-8.977,-1.613,0.000,0.000,0.000,-222576
6.04932725,41850911,3.305,-8.977,-1.613,0.000,0.000,0.000,-222129
6.053537167,41855132,3.305,-8.977,-1.613,0.000,0.000,0.000,-221728
6.057836833,41859353,3.305,-8.977,-1.613,-0.004,0.016,0.016,-223032
6.062005625,41863574,3.305,-8.977,-1.613,0.004,-0.008,-0.004,-222533
6.067180292,41868795,3.305,-8.977,-1.613,0.000,0.014,-0.010,-221930
6.071859083,41873016,3.305,-9.016,-1.574,0.000,0.014,-0.010,-221683
6.074833833,41876237,3.305,-9.016,-1.574,-0.004,0.014,-0.012,-221886
6.080825083,41882458,3.305,-9.016,-1.574,0.004,-0.014,0.002,-221918
6.085039583,41886679,3.305,-9.016,-1.574,-0.012,0.004,0.008,-221812
6.089313292,41890900,3.305,-9.016,-1.574,-0.002,0.002,-0.002,-222205
6.095193792,41896122,3.305,-9.016,-1.574,-0.012,0.006,0.014,-222554
6.099128042,41900342,3.305,-9.016,-1.574,-0.008,0.010,0.002,-221470
6.102981,41904563,3.344,-8.977,-1.574,-0.008,0.010,0.002,-223109
6.107244833,41907784,3.344,-8.977,-1.574,-0.008,-0.025,-0.014,-222211
6.112366875,41914005,3.344,-8.977,-1.574,0.004,-0.008,0.021,-221703
6.117655958,41919226,3.344,-8.977,-1.574,-0.010,-0.008,0.006,-221988
6.121886625,41923447,3.344,-8.977,-1.574,0.010,0.016,-0.008,-221870
6.126132708,41927668,3.344,-8.977,-1.574,-0.002,0.004,-0.004,-222093
6.130383583,41931889,3.344,-8.977,-1.574,-0.012,-0.012,-0.020,-221626
6.135499042,41937110,3.383,-8.977,-1.574,-0.012,-0.012,-0.020,-221286
6.138711,41940331,3.383,-8.977,-1.574,0.002,-0.004,-0.004,-222731
6.143934417,41945552,3.383,-8.977,-1.574,-0.012,0.002,0.021,-221986
6.148185167,41949773,3.383,-8.977,-1.574,0.008,0.004,-0.010,-221568
6.151361333,41952994,3.383,-8.977,-1.574,-0.012,0.004,-0.012,-221431
6.156599292,41958215,3.383,-8.977,-1.574,-0.016,0.004,-0.012,-221521
6.160863875,41962436,3.383,-8.977,-1.574,-0.004,0.006,0.014,-222475
6.165082042,41966657,3.344,-8.980,-1.535,-0.004,0.006,0.014,-222208
6.167262042,41968878,3.344,-8.980,-1.535,0.012,0.012,0.008,-221634
6.171513333,41973099,3.344,-8.980,-1.535,-0.004,-0.018,-0.016,-221041
6.175809292,41977320,3.344,-8.980,-1.535,0.002,-0.008,0.018,-222233
6.178895958,41980541,3.344,-8.980,-1.535,-0.002,-0.014,-0.012,-221297
6.184177292,41985762,3.344,-8.980,-1.535,0.016,0.004,-0.008,-221516
6.188355292,41989983,3.344,-8.980,-1.535,-0.010,0.008,0.033,-221825
6.19459275,41996204,3.305,-8.977,-1.535,-0.010,0.008,0.033,-221361
6.196817083,41998425,3.305,-8.977,-1.535,-0.004,-0.004,0.004,-221504
6.201055042,42002646,3.305,-8.977,-1.535,0.000,-0.010,-0.016,-222353
6.2052405,42006867,3.305,-8.977,-1.535,0.004,0.010,0.002,-222061
6.209480042,42011088,3.305,-8.977,-1.535,0.010,0.008,0.018,-222210
6.214709333,42016309,3.305,-8.977,-1.535,-0.006,0.004,-0.006,-221839
6.218877875,42020530,3.305,-8.977,-1.535,0.008,-0.006,-0.018,-222033
6.2221415,42023751,3.344,-8.980,-1.535,0.008,-0.006,-0.018,-221970
6.22437875,42025972,3.344,-8.980,-1.535,0.010,0.000,-0.010,-222737
6.228627333,42030193,3.344,-8.980,-1.535,0.000,-0.006,0.010,-222363
6.232838125,42034414,3.344,-8.980,-1.535,0.008,0.004,0.008,-221627
6.237059875,42038635,3.344,-8.980,-1.535,0.010,0.008,-0.002,-221872
6.241294125,42042856,3.344,-8.980,-1.535,0.004,0.010,-0.002,-222568
6.246536083,42048077,3.344,-8.980,-1.535,-0.020,-0.006,0.002,-221242
6.249731708,42051298,3.344,-8.980,-1.535,-0.020,-0.006,0.002,-221170
6.252974625,42054519,3.344,-8.980,-1.535,0.000,0.002,-0.016,-221842
6.258239625,42059740,3.344,-8.980,-1.535,-0.012,-0.014,0.006,-222451
6.26241175,42063961,3.344,-8.980,-1.535,0.000,0.002,0.004,-221593
6.266632417,42068182,3.344,-8.980,-1.535,-0.010,0.008,0.008,-221109
6.270889208,42072403,3.344,-8.980,-1.535,0.004,0.000,-0.002,-222309
6.276063583,42077624,3.344,-8.980,-1.535,0.016,0.004,0.018,-221811
6.280421792,42081845,3.305,-8.980,-1.574,0.016,0.004,0.018,-221606
6.283490875,42085051,3.305,-8.980,-1.574,0.002,0.000,0.008,-221606
6.288755042,42090271,3.305,-8.980,-1.574,-0.004,0.010,0.008,-221542
6.293967042,42095493,3.305,-8.980,-1.574,0.000,0.004,0.008,-222374
6.297098417,42098714,3.305,-8.980,-1.574,0.000,0.010,0.004,-221984
6.301343208,42102935,3.305,-8.980,-1.574,-0.002,0.002,-0.010,-221647
6.305533708,42107156,3.305,-8.980,-1.574,0.004,0.004,-0.004,-221887
6.309802292,42111377,3.344,-8.980,-1.496,0.004,0.004,-0.004,-222513
6.31303875,42114598,3.344,-8.980,-1.496,-0.004,-0.020,0.004,-221500
6.319299667,42120821,3.344,-8.980,-1.496,0.000,0.002,0.008,-222524
6.323591625,42125042,3.344,-8.980,-1.496,0.002,0.010,0.010,-222659
6.327468542,42128263,3.344,-8.980,-1.496,0.002,-0.006,-0.010,-222379
6.331248458,42132484,3.344,-8.980,-1.496,0.000,0.002,-0.002,-221689
6.335612917,42136706,3.344,-8.980,-1.496,0.006,-0.012,0.004,-221942
6.339623583,42140927,3.344,-8.977,-1.574,0.006,-0.012,0.004,-221850
6.343120042,42144148,3.344,-8.977,-1.574,-0.008,-0.002,-0.002,-222250
6.348861958,42150369,3.344,-8.977,-1.574,0.000,0.002,0.000,-221333
6.353162083,42154590,3.344,-8.977,-1.574,-0.008,0.002,-0.004,-221613
6.35749875,42158811,3.344,-8.977,-1.574,0.000,-0.006,0.006,-222427
6.362071833,42163032,3.344,-8.977,-1.574,0.010,-0.006,-0.010,-222623
6.36697025,42168253,3.344,-8.977,-1.574,0.004,0.002,0.004,-222298
6.369843667,42171474,3.344,-8.980,-1.496,0.004,0.002,0.004,-222455
6.37310925,42174695,3.344,-8.980,-1.496,0.000,-0.002,0.002,-222099
6.37934325,42180916,3.344,-8.980,-1.496,0.004,0.004,-0.002,-222130
6.383570917,42185137,3.344,-8.980,-1.496,0.008,0.002,-0.010,-221679
6.387775583,42189358,3.344,-8.980,-1.496,0.016,0.002,0.006,-221855
6.392012708,42193579,3.344,-8.980,-1.496,-0.008,-0.004,0.008,-222058
6.397242917,42198800,3.422,-9.020,-1.535,-0.008,-0.004,0.008,-221715
6.399458083,42201021,3.422,-9.020,-1.535,0.008,0.004,-0.004,-221802
6.404669667,42206242,3.422,-9.020,-1.535,-0.004,0.016,0.002,-221591
6.409864833,42210463,3.305,-8.977,-1.496,-0.004,0.016,0.002,-222519
6.411148667,42212684,3.305,-8.977,-1.496,-0.010,-0.010,0.008,-222353
6.41635425,42217905,3.305,-8.977,-1.496,0.008,0.008,0.012,-221659
6.421585375,42223126,3.305,-8.977,-1.496,-0.010,-0.004,0.002,-222030
6.425744542,42227347,3.344,-8.980,-1.535,-0.010,-0.004,0.002,-221257
6.429018,42230568,3.344,-8.980,-1.535,0.010,-0.004,-0.002,-221886
6.435236125,42236789,3.344,-8.980,-1.535,-0.010,0.000,-0.002,-221889
6.439472292,42241010,3.344,-8.980,-1.535,-0.002,0.002,0.002,-221917
6.443783417,42245231,3.344,-8.980,-1.535,-0.012,0.010,0.006,-222034
6.44787575,42249452,3.344,-8.980,-1.535,0.002,-0.010,0.008,-221785
6.454140458,42255673,3.344,-8.980,-1.535,0.000,-0.004,0.010,-221579
6.459393667,42260894,3.344,-8.980,-1.461,0.000,-0.004,0.010,-223123
6.462681458,42264115,3.344,-8.980,-1.461,0.002,-0.016,0.000,-221557
6.469024958,42270336,3.344,-8.980,-1.461,-0.006,0.000,0.010,-220995
6.473210625,42274557,3.344,-8.980,-1.461,0.002,0.004,0.002,-221962
6.477374083,42278778,3.344,-8.980,-1.461,0.012,0.002,0.002,-222126
6.482438625,42283999,3.383,-8.938,-1.574,0.012,0.002,0.002,-221580
6.485603458,42287220,3.383,-8.938,-1.574,0.002,0.004,0.004,-222178
6.491056958,42292441,3.383,-8.938,-1.574,0.000,0.004,-0.004,-222640
6.496409708,42297662,3.383,-8.938,-1.574,0.006,0.006,-0.006,-222209
6.500594375,42301883,3.383,-8.938,-1.574,-0.002,0.004,-0.006,-221476
6.504795375,42306104,3.383,-8.938,-1.574,0.002,0.002,0.014,-221730
6.508097333,42309325,3.383,-8.938,-1.574,-0.010,-0.004,-0.012,-221984
6.512026125,42313546,3.344,-8.980,-1.535,-0.010,-0.004,-0.012,-221117
6.515228708,42316767,3.344,-8.980,-1.535,-0.008,0.010,0.004,-221792
6.521496625,42322988,3.344,-8.980,-1.535,0.004,0.010,0.002,-221502
6.525915917,42327209,3.344,-8.980,-1.535,0.004,-0.002,-0.002,-221591
6.529135333,42330430,3.344,-8.980,-1.535,-0.002,-0.006,0.004,-222575
6.534372375,42335651,3.344,-8.980,-1.535,-0.002,-0.006,-0.002,-221933
6.538565583,42339872,3.344,-8.980,-1.535,0.000,0.000,-0.006,-222285
6.543042875,42344093,3.383,-9.016,-1.535,0.000,0.000,-0.006,-222362
6.544725375,42346314,3.383,-9.016,-1.535,0.002,0.002,0.002,-222341
6.549989542,42351535,3.383,-9.016,-1.535,-0.002,0.010,-0.010,-221466
6.555212667,42356756,3.383,-9.016,-1.535,0.000,-0.002,-0.010,-222197
6.559511292,42360977,3.383,-9.016,-1.535,0.000,0.006,0.004,-222300
6.563735375,42365198,3.383,-9.016,-1.535,0.000,0.010,0.014,-222339
6.567130667,42368419,3.383,-9.016,-1.535,-0.008,0.008,-0.006,-221826
6.571318958,42372640,3.344,-8.980,-1.535,-0.008,0.008,-0.006,-221533
6.574561667,42375861,3.344,-8.980,-1.535,0.000,0.000,-0.004,-221950
6.580520625,42382082,3.344,-8.980,-1.535,0.008,0.010,0.008,-221970
6.584732125,42386303,3.344,-8.980,-1.535,-0.014,0.004,0.006,-222080
6.5890035,42390524,3.344,-8.980,-1.535,0.004,0.010,0.014,-222725
6.594409083,42395745,3.344,-8.980,-1.535,-0.004,0.004,0.000,-222548
6.5984345,42399966,3.344,-8.980,-1.535,0.002,-0.008,0.002,-222060
6.602653958,42404187,3.344,-9.016,-1.535,0.002,-0.008,0.002,-221164
6.606041167,42407408,3.344,-9.016,-1.535,-0.004,-0.004,-0.002,-222391
6.611053125,42412629,3.344,-9.016,-1.535,-0.002,0.000,-0.004,-222130
6.61623925,42417850,3.344,-9.016,-1.535,0.000,0.008,0.016,-221652
6.619459083,42421071,3.344,-9.016,-1.535,0.012,-0.004,-0.012,-222355
6.623723792,42425292,3.344,-9.016,-1.535,-0.004,0.016,0.004,-221702
6.627843625,42429513,3.344,-9.016,-1.535,0.004,-0.004,-0.004,-221930
6.632155417,42433734,3.344,-8.980,-1.535,0.004,-0.004,-0.004,-221796
6.635397125,42436955,3.344,-8.980,-1.535,-0.004,0.000,0.008,-222190
6.641651042,42443176,3.344,-8.980,-1.535,0.016,0.000,0.016,-222642
6.645822792,42447397,3.344,-8.980,-1.535,-0.008,0.000,-0.004,-222248
6.649061375,42450618,3.344,-8.980,-1.535,-0.004,0.000,-0.010,-221729
6.655245,42456839,3.344,-8.980,-1.535,-0.004,-0.002,-0.006,-222146
6.659476542,42461060,3.344,-8.980,-1.535,-0.012,0.002,-0.002,-222375
6.664790375,42466281,3.344,-9.016,-1.496,-0.012,0.002,-0.002,-221878
6.667019375,42468504,3.344,-9.016,-1.496,-0.006,-0.016,0.006,-221994
6.672136417,42473724,3.344,-9.016,-1.496,0.002,-0.004,0.010,-221937
6.677386,42478945,3.344,-9.016,-1.496,-0.004,-0.002,-0.008,-222692
6.682632125,42484166,3.344,-9.016,-1.496,-0.008,0.002,0.002,-222085
6.68722425,42488387,3.344,-9.016,-1.496,-0.004,0.006,0.004,-221429
6.691073292,42492608,3.344,-9.016,-1.496,-0.002,-0.006,0.006,-222094
6.695233458,42496829,3.383,-9.016,-1.496,-0.002,-0.006,0.006,-221987
6.697445917,42499050,3.383,-9.016,-1.496,-0.004,0.008,0.006,-221050
6.7026845,42504271,3.383,-9.016,-1.496,0.000,0.004,0.004,-221693
6.707668083,42508493,3.383,-9.016,-1.496,-0.010,0.002,0.002,-222446
6.711198583,42512713,3.383,-9.016,-1.496,-0.002,-0.008,-0.008,-221693
6.716381,42517934,3.383,-9.016,-1.496,-0.010,-0.008,0.010,-221862
6.72053425,42522155,3.383,-9.016,-1.496,0.002,0.014,0.006,-222293
6.724898167,42526376,3.344,-8.977,-1.574,0.002,0.014,0.006,-221279
6.727255167,42528597,3.344,-8.977,-1.574,-0.008,-0.008,0.000,-222451
6.73238575,42533818,3.344,-8.977,-1.574,-0.002,0.004,0.004,-221354
6.737708333,42539039,3.344,-8.977,-1.574,0.000,0.008,0.010,-221416
6.741998583,42543260,3.344,-8.977,-1.574,-0.006,-0.008,-0.008,-222290
6.746862417,42548481,3.344,-8.977,-1.574,0.008,0.008,-0.010,-221379
6.752116333,42553703,3.344,-8.977,-1.574,-0.002,0.004,0.006,-222020
6.75734325,42558924,3.344,-8.980,-1.496,-0.002,0.004,0.006,-222603
6.759548375,42561145,3.344,-8.980,-1.496,0.002,-0.004,-0.008,-221872
6.765037708,42566366,3.344,-8.980,-1.496,0.010,0.004,0.002,-221258
6.768980083,42570587,3.344,-8.980,-1.496,0.002,-0.016,0.004,-222088
6.774540583,42575808,3.344,-8.980,-1.496,-0.004,0.000,0.004,-222157
6.777472958,42579029,3.344,-8.977,-1.574,-0.004,0.000,0.004,-222663
6.779951167,42581250,3.344,-8.977,-1.574,0.000,0.006,0.002,-221312
6.784994625,42586471,3.344,-8.977,-1.574,0.002,0.004,0.004,-221946
6.789162542,42590692,3.344,-8.977,-1.574,-0.008,-0.008,-0.010,-222149
6.793412042,42594913,3.344,-8.977,-1.574,-0.008,-0.002,0.004,-221606
6.797622875,42599134,3.344,-8.977,-1.574,-0.006,0.002,-0.002,-220931
6.803499667,42604355,3.344,-8.977,-1.574,0.002,0.004,-0.006,-221558
6.806995292,42608576,3.422,-8.977,-1.535,0.002,0.004,-0.006,-221683
6.810330875,42611797,3.422,-8.977,-1.535,0.002,0.002,0.002,-221651
6.816495708,42618018,3.422,-8.977,-1.535,0.000,-0.008,-0.012,-221821
6.820642375,42622239,3.422,-8.977,-1.535,-0.002,0.000,0.020,-222517
6.824973458,42626460,3.422,-8.977,-1.535,-0.008,0.006,0.025,-222142
6.830285458,42631681,3.422,-8.977,-1.535,0.002,-0.002,-0.020,-222143
6.834390333,42635902,3.422,-8.977,-1.535,-0.012,0.006,-0.006,-222166
6.837555,42639123,3.383,-9.094,-1.574,-0.012,0.006,-0.006,-222354
6.839726083,42641344,3.383,-9.094,-1.574,0.012,0.016,0.004,-222267
6.845019125,42646565,3.383,-9.094,-1.574,-0.023,-0.027,-0.020,-222223
6.84957825,42650786,3.383,-9.094,-1.574,-0.139,-0.018,-0.002,-221288
6.854466958,42656007,3.383,-8.793,-1.687,-0.139,-0.018,-0.002,-222466
6.857658708,42659228,3.383,-8.793,-1.687,0.053,-0.062,-0.076,-222090
6.8629105,42664449,3.383,-8.793,-1.687,0.027,-0.141,0.066,-221795
6.867057833,42668670,3.383,-8.793,-1.687,-0.008,0.020,0.084,-221203
6.871337375,42672891,3.305,-9.055,-1.766,-0.008,0.020,0.084,-221023
6.874600958,42676112,3.305,-9.055,-1.766,0.002,0.072,0.121,-222181
6.879779958,42681333,3.305,-9.055,-1.766,-0.037,0.076,0.156,-222199
6.885010625,42686554,3.305,-9.055,-1.766,0.006,-0.027,-0.324,-221244
6.889207,42690775,3.305,-9.055,-1.766,0.000,0.025,-0.121,-221871
6.894453208,42695996,3.305,-9.055,-1.766,0.021,0.002,0.195,-221484
6.899706833,42701217,3.305,-9.055,-1.766,-0.035,0.090,-0.033,-221420
6.903833333,42705438,2.922,-9.020,-1.687,-0.035,0.090,-0.033,-222204
6.906038708,42707659,2.922,-9.020,-1.687,-0.008,0.055,-0.047,-222703
6.910702167,42711880,2.922,-9.020,-1.687,0.049,-0.207,-0.178,-221452
6.915543042,42717101,2.922,-9.020,-1.687,-0.033,0.031,0.033,-222151
6.919696375,42721322,2.922,-9.020,-1.687,0.008,0.115,0.373,-222099
6.924000167,42725543,2.922,-8.867,-1.687,0.008,0.115,0.373,-221915
6.928325167,42729764,2.922,-8.867,-1.687,0.033,-0.049,-0.287,-222481
6.932708292,42733985,2.922,-8.867,-1.687,0.016,-0.092,-0.279,-222018
6.936727542,42738206,2.922,-8.867,-1.687,0.004,-0.043,-0.027,-222409
6.9414125,42742427,2.922,-8.867,-1.687,-0.012,0.051,0.244,-222992
6.945102292,42746648,2.922,-8.867,-1.687,-0.016,0.035,0.195,-221150
6.950344917,42751869,3.266,-8.977,-1.461,-0.016,0.035,0.195,-222125
6.953500667,42755090,3.266,-8.977,-1.461,0.002,-0.016,-0.115,-222538
6.959733083,42761311,3.266,-8.977,-1.461,-0.025,-0.021,0.068,-221433
6.964240792,42765532,3.266,-8.977,-1.461,-0.014,0.076,0.111,-221333
6.968346417,42769753,3.266,-8.977,-1.461,-0.002,0.037,0.088,-221759
6.972380792,42773974,3.266,-8.977,-1.461,-0.014,-0.020,-0.014,-222454
6.977862167,42779195,3.383,-9.020,-1.574,-0.014,-0.020,-0.014,-221833
6.979800958,42781416,3.383,-9.020,-1.574,0.004,-0.012,-0.148,-222270
6.985079208,42786637,3.383,-9.020,-1.574,-0.008,0.031,0.086,-221708
6.989287167,42790858,3.383,-9.020,-1.574,-0.014,0.018,0.092,-221470
6.994661833,42796079,3.383,-9.020,-1.574,-0.006,-0.006,0.010,-221784
6.999128375,42800300,3.344,-9.016,-1.535,-0.006,-0.006,0.010,-222080
7.003053583,42804521,3.344,-9.016,-1.535,0.012,-0.020,-0.018,-221277
7.007162625,42808742,3.344,-9.016,-1.535,0.000,0.010,0.039,-221711
7.010987458,42811963,3.344,-9.016,-1.535,0.004,0.018,0.057,-222089
7.014649667,42816184,3.344,-9.016,-1.535,0.014,-0.014,-0.008,-221134
7.017807917,42819405,3.305,-8.977,-1.613,0.014,-0.014,-0.008,-222689
7.022055167,42823626,3.305,-8.977,-1.613,0.039,-0.014,-0.045,-222292
7.025290458,42826847,3.305,-8.633,-1.496,0.039,-0.014,-0.045,-221856
7.029547708,42831068,3.305,-8.633,-1.496,-0.078,0.010,-0.018,-222087
7.03522075,42836289,3.305,-8.633,-1.496,-0.016,0.059,0.076,-222837
7.038606917,42839510,3.305,-8.633,-1.496,0.023,-0.010,0.146,-222077
7.042261417,42843731,3.305,-8.633,-1.496,0.037,-0.275,-0.045,-222900
7.047363875,42848952,3.305,-8.633,-1.496,0.006,0.062,0.100,-221107
7.050617917,42852173,3.457,-8.980,-1.727,0.006,0.062,0.100,-221919
7.053845708,42855395,3.457,-8.980,-1.727,0.006,0.098,0.199,-222656
7.060105667,42861615,3.457,-8.980,-1.727,0.078,-0.205,-0.430,-222305
7.0643325,42865836,3.457,-8.980,-1.727,0.008,-0.148,-0.316,-222441
7.068450042,42870057,3.457,-8.980,-1.727,-0.004,0.143,0.223,-222126
7.07175225,42873278,3.457,-8.980,-1.727,-0.047,0.045,0.186,-221887
7.075904417,42877500,3.383,-9.172,-1.535,-0.047,0.045,0.186,-221887
7.078109083,42879720,3.383,-9.172,-1.535,0.008,0.092,-0.125,-221675
7.08238975,42883941,3.383,-9.172,-1.535,0.072,-0.066,-0.186,-221616
7.087568458,42889162,3.383,-9.172,-1.535,0.004,-0.135,0.072,-221947
7.091841542,42893383,3.383,-9.172,-1.535,-0.070,0.098,0.092,-222255
7.097007625,42898604,3.383,-9.172,-1.535,0.021,0.129,0.068,-222200
7.102191167,42903825,3.383,-9.172,-1.535,0.012,0.016,-0.129,-221661
7.10664025,42908046,3.266,-8.977,-1.727,0.012,0.016,-0.129,-222486
7.10863675,42910267,3.266,-8.977,-1.727,0.006,-0.016,-0.162,-222266
7.113811333,42915488,3.266,-8.977,-1.727,0.008,0.012,0.104,-222386
7.119005083,42920711,3.266,-8.977,-1.727,-0.020,-0.014,-0.115,-221887
7.123269333,42924931,3.266,-8.977,-1.727,-0.018,0.076,-0.053,-221777
7.127458542,42929152,3.266,-8.977,-1.727,-0.002,0.025,0.072,-221624
7.133792042,42933373,3.266,-8.977,-1.727,-0.016,-0.072,0.076,-221521
7.135864458,42937594,3.074,-9.055,-1.574,-0.016,-0.072,0.076,-221560
7.139115792,42940815,3.074,-9.055,-1.574,0.006,0.068,0.150,-221776
7.144318167,42946036,3.074,-9.055,-1.574,-0.014,0.062,-0.125,-221552
7.148655792,42950257,3.074,-9.055,-1.574,-0.008,0.004,-0.178,-222068
7.153815,42955478,3.074,-9.055,-1.574,-0.020,-0.021,-0.129,-222214
7.158068458,42959700,3.074,-9.055,-1.574,0.004,0.018,-0.035,-222553
7.167236292,42963921,3.305,-9.020,-1.383,0.004,0.018,-0.035,-221702
7.167312708,42967142,3.305,-9.020,-1.383,-0.018,-0.008,0.078,-221446
7.170628958,42972363,3.305,-9.020,-1.383,0.010,-0.037,0.010,-221612
7.175945125,42977584,3.305,-9.020,-1.383,0.021,-0.018,0.020,-222599
7.18015875,42981805,3.305,-9.020,-1.383,0.004,0.002,0.078,-221655
7.184373042,42986026,3.305,-9.020,-1.383,0.000,-0.004,0.064,-221820
7.188521708,42990247,3.305,-9.020,-1.383,0.018,-0.021,-0.010,-222434
7.192797625,42994468,3.383,-8.898,-1.613,0.018,-0.021,-0.010,-222772
7.1950495,42996689,3.383,-8.898,-1.613,0.023,-0.010,-0.039,-222190
7.200208542,43001910,3.383,-8.898,-1.613,-0.020,0.018,-0.002,-221744
7.204479958,43006131,3.383,-8.898,-1.613,-0.033,-0.010,-0.043,-221501
7.207702292,43009352,3.383,-8.898,-1.613,0.021,0.076,0.027,-222554
7.211959833,43013573,3.383,-8.898,-1.613,0.059,-0.006,0.125,-222010
7.216114667,43017796,3.383,-8.898,-1.613,-0.004,-0.150,-0.039,-221849
7.219357417,43021017,3.266,-8.977,-1.613,-0.004,-0.150,-0.039,-221516
7.221527375,43023238,3.266,-8.977,-1.613,-0.021,0.062,0.135,-222583
7.225843667,43027459,3.266,-8.977,-1.613,-0.062,0.104,0.305,-222721
7.229982583,43031680,3.266,-8.977,-1.613,0.008,0.080,0.051,-221382
7.235243292,43036901,3.266,-8.977,-1.613,-0.014,-0.062,-0.363,-221500
7.239465917,43041122,3.266,-8.977,-1.613,-0.010,-0.043,-0.174,-222345
7.243673667,43045343,3.266,-8.977,-1.613,-0.002,0.014,0.182,-222547
7.246960083,43048564,3.383,-9.094,-1.305,-0.002,0.014,0.182,-221655
7.249167208,43050785,3.383,-9.094,-1.305,-0.037,0.057,0.129,-221501
7.253392667,43055006,3.383,-9.094,-1.305,-0.031,0.129,-0.033,-222481
7.257598958,43059227,3.383,-9.094,-1.305,0.057,0.016,-0.010,-221804
7.262849917,43064448,3.383,-9.094,-1.305,-0.025,0.043,-0.021,-221739
7.267033042,43068669,3.383,-9.094,-1.305,0.025,0.115,0.201,-221565
7.271276542,43072890,3.383,-9.094,-1.305,-0.051,0.029,0.271,-222521
7.27549475,43077111,3.113,-8.871,-1.727,-0.051,0.029,0.271,-222442
7.277721833,43079332,3.113,-8.871,-1.727,0.031,0.045,-0.223,-221980
7.282942125,43084553,3.113,-8.871,-1.727,-0.012,-0.057,-0.129,-221275
7.287125,43088774,3.113,-8.871,-1.727,0.010,0.000,-0.002,-222148
7.290679,43091995,3.113,-8.871,-1.727,-0.010,0.043,0.160,-221574
7.29563375,43097216,3.113,-8.871,-1.727,0.012,-0.143,-0.023,-222050
7.299838083,43101437,3.113,-8.871,-1.727,-0.033,0.066,0.051,-221701
7.3029885,43104659,3.152,-8.938,-1.422,-0.033,0.066,0.051,-222234
7.307266083,43108880,3.152,-8.938,-1.422,-0.059,0.027,0.111,-221942
7.310463458,43112101,3.113,-9.059,-1.766,-0.059,0.027,0.111,-222281
7.315712375,43117322,3.113,-9.059,-1.766,0.004,-0.043,-0.150,-221494
7.319940417,43121543,3.113,-9.059,-1.766,0.008,-0.020,-0.062,-222162
7.324186583,43125764,3.113,-9.059,-1.766,-0.002,-0.014,-0.037,-221190
7.328400792,43129986,3.113,-9.059,-1.766,-0.027,0.035,0.014,-221574
7.332618875,43134207,3.113,-9.059,-1.766,-0.018,0.062,0.016,-221647
7.337033458,43138428,3.227,-9.055,-1.496,-0.018,0.062,0.016,-222126
7.339160375,43140649,3.227,-9.055,-1.496,-0.014,0.043,-0.020,-222306
7.345278167,43146870,3.227,-9.055,-1.496,0.002,-0.016,0.072,-221895
7.349530917,43151091,3.227,-9.055,-1.496,0.010,-0.006,0.090,-221831
7.354704583,43156312,3.227,-9.055,-1.496,0.008,0.027,0.045,-221597
7.360043042,43161533,3.227,-9.055,-1.496,-0.002,0.004,-0.023,-222090
7.364227542,43165754,3.227,-9.055,-1.496,0.023,-0.010,-0.062,-221276
7.36743,43168975,3.383,-9.016,-1.535,0.023,-0.010,-0.062,-221680
7.37063975,43172196,3.383,-9.016,-1.535,0.021,-0.021,-0.062,-222422
7.376827542,43178417,3.383,-9.016,-1.535,0.014,0.000,0.021,-221542
7.38103075,43182638,3.383,-9.016,-1.535,0.000,-0.002,-0.004,-222335
7.385268042,43186859,3.383,-9.016,-1.535,0.002,0.010,-0.008,-222406
7.390529583,43192080,3.383,-9.016,-1.535,0.006,-0.023,-0.004,-221783
7.395753375,43197301,3.383,-9.016,-1.535,-0.004,-0.008,0.018,-222064
7.399964583,43201522,3.344,-8.977,-1.574,-0.004,-0.008,0.018,-221646
7.402178667,43203743,3.344,-8.977,-1.574,-0.008,0.014,0.062,-221845
7.406953167,43207964,3.344,-8.977,-1.574,0.000,0.002,-0.043,-221534
7.410672958,43212185,3.344,-8.977,-1.574,-0.006,-0.018,-0.064,-222101
7.415844333,43217406,3.344,-8.977,-1.574,0.004,0.002,0.006,-221124
7.420081125,43221627,3.344,-8.977,-1.574,-0.008,0.006,0.033,-222353
7.424291125,43225848,3.344,-8.977,-1.574,-0.008,0.018,0.057,-221577
7.42858825,43230069,3.344,-9.020,-1.574,-0.008,0.018,0.057,-222490
7.431697792,43233290,3.344,-9.020,-1.574,-0.012,0.018,0.014,-222242
7.437948167,43239511,3.344,-9.020,-1.574,-0.004,-0.006,-0.023,-221373
7.442226833,43243732,3.344,-9.020,-1.574,-0.006,0.006,-0.021,-222083
7.445415,43246954,3.344,-9.020,-1.574,0.004,-0.012,0.014,-222195
7.449642083,43251175,3.344,-9.020,-1.574,-0.004,-0.004,0.010,-221809
7.455867875,43257396,3.344,-9.020,-1.574,0.006,-0.002,0.008,-222326
7.460107,43261617,3.344,-9.016,-1.535,0.006,-0.002,0.008,-222138
7.463314708,43264838,3.344,-9.016,-1.535,0.002,-0.002,0.002,-221253
7.468616208,43270059,3.344,-9.016,-1.535,0.006,-0.018,-0.002,-221983
7.473006833,43274280,3.344,-9.016,-1.535,0.010,0.000,0.021,-221437
7.476948958,43278501,3.344,-9.016,-1.535,-0.012,-0.012,0.016,-222158
7.481165292,43282722,3.344,-9.016,-1.535,0.000,0.006,-0.012,-222855
7.485402875,43286943,3.344,-9.016,-1.535,0.000,-0.020,-0.021,-221816
7.489690875,43291164,3.344,-9.020,-1.574,0.000,-0.020,-0.021,-222103
7.492994208,43294385,3.344,-9.020,-1.574,-0.002,-0.002,-0.021,-223171
7.499743083,43300606,3.344,-9.020,-1.574,0.002,-0.002,0.000,-221685
7.50353525,43304827,3.344,-9.020,-1.574,0.002,-0.002,-0.004,-221629
7.507755542,43309048,3.344,-9.020,-1.574,-0.004,-0.010,0.010,-221741
7.511729417,43313269,3.344,-9.020,-1.574,0.020,-0.004,-0.016,-222735
7.516941708,43318490,3.344,-9.020,-1.574,-0.002,0.002,0.004,-222288
7.521197875,43322711,3.344,-8.977,-1.574,-0.002,0.002,0.004,-221816
7.524325417,43325932,3.344,-8.977,-1.574,0.000,-0.008,0.016,-222071
7.529636875,43331153,3.344,-8.977,-1.574,-0.004,-0.006,-0.008,-221597
7.534990667,43336374,3.344,-8.977,-1.574,-0.006,0.004,0.002,-222047
7.539178667,43340595,3.344,-8.977,-1.574,-0.010,0.004,-0.008,-222276
7.543300292,43344816,3.344,-8.977,-1.574,-0.020,-0.008,0.006,-222246
7.548503542,43350037,3.266,-8.977,-1.496,-0.020,-0.008,0.006,-221971
7.551656792,43353258,3.266,-8.977,-1.496,-0.002,0.002,0.006,-221322
7.558040917,43359479,3.266,-8.977,-1.496,0.004,-0.004,0.002,-222023
7.562277542,43363700,3.266,-8.977,-1.496,0.006,-0.002,0.004,-221802
7.566625625,43367921,3.266,-8.977,-1.496,0.000,0.008,0.014,-221824
7.57082,43372142,3.266,-8.977,-1.496,0.002,-0.010,0.006,-221384
7.5757845,43377363,3.266,-8.977,-1.496,0.002,-0.004,-0.004,-222158
7.580012042,43381584,3.422,-9.020,-1.535,0.002,-0.004,-0.004,-222326
7.583236292,43384805,3.422,-9.020,-1.535,-0.004,-0.016,-0.006,-222132
7.588466958,43390026,3.422,-9.020,-1.535,0.016,0.014,0.004,-222418
7.593698458,43395247,3.422,-9.020,-1.535,0.008,0.010,-0.010,-221785
7.597905,43399469,3.422,-9.020,-1.535,0.012,0.010,-0.012,-222161
7.60310525,43404691,3.422,-9.020,-1.535,-0.002,0.100,0.016,-221798
7.607337458,43408912,3.422,-9.020,-1.535,-0.107,0.131,0.057,-221957
7.611560208,43413133,3.305,-9.059,-1.344,-0.107,0.131,0.057,-222151
7.614855917,43416354,3.305,-9.059,-1.344,0.109,-0.133,-0.187,-221369
7.62102075,43422575,3.305,-9.059,-1.344,-0.025,-0.100,-0.002,-222405
7.625199917,43426796,3.305,-9.059,-1.344,-0.043,0.150,0.412,-222178
7.629493208,43431017,3.305,-9.059,-1.344,-0.021,0.076,0.443,-222082
7.634689417,43436238,3.305,-9.059,-1.344,0.004,0.094,-0.080,-221307
7.639934583,43441459,3.305,-9.059,-1.344,0.092,-0.254,-0.609,-221546
7.645126375,43446665,3.766,-9.055,-0.922,0.092,-0.254,-0.609,-221546
7.648265458,43449885,3.766,-9.055,-0.922,-0.018,-0.086,-0.113,-221547
7.654533292,43456106,3.766,-9.055,-0.922,-0.051,0.107,0.195,-222643
7.65872,43460327,3.766,-9.055,-0.922,0.055,0.006,-0.311,-221976
7.662953083,43464548,3.766,-9.055,-0.922,0.012,-0.059,-0.377,-221397
7.668188958,43469769,3.766,-9.055,-0.922,0.070,-0.049,0.146,-222036
7.672400208,43473990,3.766,-9.055,-0.922,0.014,-0.232,0.098,-222186
7.67766125,43479211,3.305,-9.133,-1.344,0.014,-0.232,0.098,-222049
7.679871458,43481432,3.305,-9.133,-1.344,0.021,0.195,0.232,-222309
7.68409675,43485655,3.305,-9.133,-1.344,-0.043,0.029,-0.004,-221831
7.688368875,43489876,3.305,-9.133,-1.344,0.021,0.049,-0.426,-221594
7.6926825,43494097,3.305,-9.133,-1.344,0.018,-0.045,-0.422,-223060
7.696972917,43498318,3.305,-9.133,-1.344,-0.008,-0.084,-0.242,-222328
7.701019458,43502539,3.305,-9.133,-1.344,-0.016,0.035,0.219,-221688
7.705204833,43506761,3.074,-8.902,-1.270,-0.016,0.035,0.219,-221485
7.708180875,43508982,3.074,-8.902,-1.270,-0.012,0.006,0.078,-221969
7.7116375,43513203,3.074,-8.902,-1.270,-0.012,-0.053,-0.098,-222116
7.715864042,43517424,3.074,-8.902,-1.270,-0.012,-0.002,0.064,-221645
7.720313875,43521645,3.074,-8.902,-1.270,-0.027,0.004,0.193,-222257
7.724384917,43525867,3.074,-8.902,-1.270,-0.033,0.053,0.230,-221087
7.728556542,43530087,3.074,-8.902,-1.270,0.006,-0.039,-0.127,-222172
7.732786667,43534308,3.422,-8.980,-1.574,0.006,-0.039,-0.127,-221676
7.735925,43537529,3.422,-8.980,-1.574,-0.006,-0.020,-0.199,-221650
7.741255208,43542750,3.422,-8.980,-1.574,-0.037,0.010,0.029,-222358
7.745365625,43546971,3.422,-8.980,-1.574,-0.023,0.035,0.076,-221560
7.750669292,43552192,3.422,-8.980,-1.574,0.008,-0.008,0.023,-221990
7.755815583,43557413,3.422,-8.980,-1.574,0.002,0.004,0.021,-222256
7.761214083,43562634,3.422,-8.980,-1.574,0.012,-0.045,-0.053,-222275
7.765573625,43566855,3.457,-9.055,-1.535,0.012,-0.045,-0.053,-221899
7.767643917,43569076,3.457,-9.055,-1.535,0.008,-0.025,-0.045,-221326
7.772705667,43574297,3.457,-9.055,-1.535,0.008,0.025,0.096,-222543
7.778209583,43579518,3.457,-9.055,-1.535,-0.002,-0.010,-0.035,-222612
7.7831815,43584739,3.457,-9.055,-1.535,0.008,-0.018,-0.070,-222248
7.788427958,43589960,3.535,-8.980,-1.461,0.008,-0.018,-0.070,-221515
7.791649625,43593181,3.535,-8.980,-1.461,-0.004,-0.039,0.010,-222088
7.797882542,43599402,3.535,-8.980,-1.461,0.002,0.014,0.066,-221953
7.802217833,43603623,3.535,-8.980,-1.461,-0.012,0.027,0.020,-222151
7.806322667,43607844,3.535,-8.980,-1.461,0.021,0.070,-0.043,-222170
7.810506833,43612050,3.535,-8.980,-1.461,-0.078,0.109,0.020,-222170
7.81574225,43617270,3.535,-8.980,-1.461,0.023,0.088,0.006,-222041
7.820018167,43621491,4.301,-8.633,-1.496,0.023,0.088,0.006,-222276
7.823161375,43624712,4.301,-8.633,-1.496,0.066,-0.127,-0.023,-222937
7.828376083,43629933,4.301,-8.633,-1.496,-0.064,0.186,0.320,-221914
7.833650792,43635154,4.301,-8.633,-1.496,-0.115,0.117,0.252,-221977
7.837817833,43639375,4.301,-8.633,-1.496,-0.025,0.115,-0.088,-222273
7.842206708,43643596,4.301,-8.633,-1.496,0.068,-0.242,-0.551,-222739
7.8462825,43647817,4.301,-8.633,-1.496,0.012,-0.209,-0.422,-222294
7.850531125,43652038,3.496,-8.754,-1.270,0.012,-0.209,-0.422,-221481
7.854311625,43655259,3.496,-8.754,-1.270,-0.016,0.076,0.447,-221615
7.859037333,43660480,3.496,-8.754,-1.270,0.025,0.062,-0.035,-222159
7.863218,43664701,3.496,-8.754,-1.270,0.023,-0.082,-0.336,-221664
7.867382458,43668922,3.496,-8.754,-1.270,0.043,-0.051,-0.275,-221304
7.871552625,43673143,3.496,-8.754,-1.270,0.023,-0.098,0.064,-222265
7.876808208,43678364,3.496,-8.754,-1.270,-0.043,0.039,0.164,-221633
7.881000875,43682585,3.035,-9.016,-1.270,-0.043,0.039,0.164,-222294
7.88419375,43685806,3.035,-9.016,-1.270,0.008,0.113,0.193,-222438
7.888443583,43690027,3.035,-9.016,-1.270,0.010,0.012,-0.307,-222389
7.891760375,43693248,3.035,-9.016,-1.270,0.025,-0.006,-0.383,-221998
7.895872458,43697469,3.035,-9.016,-1.270,-0.010,0.023,-0.051,-221082
7.900178042,43701691,3.035,-9.016,-1.270,0.020,-0.016,0.172,-222185
7.904345958,43705912,3.035,-9.016,-1.270,-0.012,-0.049,0.109,-221911
7.908650167,43710133,3.422,-9.059,-1.383,-0.012,-0.049,0.109,-221821
7.911736708,43713354,3.422,-9.059,-1.383,-0.016,0.023,0.016,-221730
7.917957208,43719575,3.422,-9.059,-1.383,-0.027,0.018,0.012,-221584
7.92220475,43723796,3.422,-9.059,-1.383,-0.008,0.023,-0.006,-222063
7.926423625,43728017,3.422,-9.059,-1.383,0.021,-0.010,0.031,-222433
7.930751875,43732238,3.422,-9.059,-1.383,0.014,-0.049,-0.016,-221979
7.935860333,43737459,3.422,-9.059,-1.383,-0.002,-0.008,-0.070,-221563
7.940209208,43741680,3.383,-9.055,-1.461,-0.002,-0.008,-0.070,-222162
7.943289708,43744901,3.383,-9.055,-1.461,-0.018,0.006,-0.010,-221805
7.948531083,43750122,3.383,-9.055,-1.461,0.012,-0.010,-0.012,-221974
7.952747875,43754343,3.383,-9.055,-1.461,0.008,-0.004,0.051,-221242
7.957011583,43758564,3.383,-9.055,-1.461,-0.002,-0.002,0.041,-221542
7.96150725,43762785,3.383,-9.055,-1.461,0.006,-0.016,-0.012,-221703
7.96552925,43767006,3.383,-9.055,-1.461,0.000,0.012,0.002,-221656
7.969631292,43771227,3.383,-8.941,-1.535,0.000,0.012,0.002,-221252
7.971849,43773448,3.383,-8.941,-1.535,0.023,-0.010,-0.027,-221433
7.977349542,43778669,3.383,-8.941,-1.535,0.010,-0.008,-0.018,-222326
7.981302125,43782890,3.383,-8.941,-1.535,-0.004,-0.010,0.064,-222151
7.985576125,43787111,3.383,-8.941,-1.535,1.439,-1.408,-1.385,-221870
7.98977975,43791332,3.383,-8.941,-1.535,4.467,-4.439,-4.430,-222179
7.995023333,43796553,3.383,-8.941,-1.535,-0.141,0.137,0.117,-221652
7.999521667,43800774,2.922,-9.211,-1.383,-0.141,0.137,0.117,-222023
8.001489333,43802995,2.922,-9.211,-1.383,-0.043,0.102,0.012,-221483
8.005610583,43807216,2.922,-9.211,-1.383,0.072,-0.117,-0.059,-222554
8.010076958,43811437,2.922,-9.211,-1.383,-0.021,-0.121,-0.168,-221567
8.014081792,43815658,2.922,-9.211,-1.383,-0.045,0.115,0.150,-221974
8.018298958,43819879,2.922,-9.211,-1.383,-0.008,0.047,0.453,-221923
8.022556083,43824100,2.922,-9.211,-1.383,-0.088,0.059,0.260,-222729
8.026827375,43828321,2.770,-8.832,-1.879,-0.088,0.059,0.260,-222336
8.030007083,43831542,2.770,-8.832,-1.879,0.070,0.029,-0.275,-221970
8.036287667,43837763,2.770,-8.832,-1.879,0.008,0.018,0.076,-222314
8.040776042,43841984,2.770,-8.832,-1.879,-0.031,0.043,0.268,-222747
8.044637042,43846205,2.770,-8.832,-1.879,-0.031,0.082,0.164,-221881
8.048859667,43850426,2.770,-8.832,-1.879,-0.012,0.107,0.000,-221460
8.055059792,43856647,2.770,-8.832,-1.879,0.045,-0.096,-0.225,-222495
8.059353875,43860868,3.574,-9.285,-1.383,0.045,-0.096,-0.225,-222765
8.061521583,43863089,3.574,-9.285,-1.383,-0.025,-0.033,-0.047,-222058
8.065837083,43867310,3.574,-9.285,-1.383,-0.025,0.051,0.256,-221630
8.069925542,43871531,3.574,-9.285,-1.383,-0.057,0.043,0.098,-221494
8.075504,43876752,3.574,-9.285,-1.383,0.021,-0.062,-0.283,-222426
8.079378542,43880973,3.574,-9.285,-1.383,-0.004,-0.068,-0.184,-221969
8.083684875,43885194,3.574,-9.285,-1.383,0.010,-0.010,0.107,-220876
8.087866333,43889415,3.227,-8.980,-1.535,0.010,-0.010,0.107,-222043
8.09006225,43891636,3.227,-8.980,-1.535,-0.021,0.018,0.209,-222228
8.095419417,43896857,3.227,-8.980,-1.535,0.008,-0.018,-0.045,-221852
8.099851708,43901078,3.227,-8.980,-1.535,0.002,-0.027,-0.109,-221360
8.103711167,43905299,3.227,-8.980,-1.535,0.004,0.010,-0.061,-221694
8.109106333,43910520,3.227,-8.980,-1.535,-0.006,0.006,0.041,-222830
8.113144667,43914741,3.227,-8.980,-1.535,0.008,0.021,0.031,-221881
8.118372083,43919962,3.422,-8.941,-1.422,0.008,0.021,0.031,-221729
8.120614125,43922183,3.422,-8.941,-1.422,-0.012,-0.027,-0.047,-221664
8.124838833,43926404,3.422,-8.941,-1.422,0.012,0.020,-0.059,-222426
8.129081542,43930626,3.422,-8.941,-1.422,0.000,0.012,-0.016,-221845
8.134347083,43935847,3.422,-8.941,-1.422,0.000,0.018,0.018,-221915
8.138614583,43940068,3.422,-8.941,-1.422,-0.002,-0.008,0.021,-221678
8.14312775,43944289,3.422,-8.941,-1.422,0.020,-0.012,-0.006,-222437
8.147940458,43949510,3.383,-9.016,-1.461,0.020,-0.012,-0.006,-222008
8.150126833,43951731,3.383,-9.016,-1.461,0.008,0.010,-0.008,-221522
8.155377458,43956952,3.383,-9.016,-1.461,-0.008,0.020,0.010,-222326
8.159652792,43961173,3.383,-9.016,-1.461,0.002,-0.008,0.000,-221846
8.164863833,43966394,3.383,-9.016,-1.461,0.002,-0.006,-0.010,-221871
8.16905525,43970615,3.383,-9.016,-1.461,0.008,-0.006,0.039,-222867
8.17426725,43975836,3.383,-9.016,-1.461,-0.006,0.010,0.023,-222321
8.178448292,43980057,3.266,-9.020,-1.535,-0.006,0.010,0.023,-221255
8.18166875,43983278,3.266,-9.020,-1.535,0.004,0.000,0.002,-222164
8.186888167,43988499,3.266,-9.020,-1.535,0.004,-0.021,-0.008,-222121
8.19109525,43992720,3.266,-9.020,-1.535,0.002,-0.010,-0.010,-222473
8.1966515,43997941,3.266,-9.020,-1.535,0.008,0.006,0.029,-222009
8.200591292,44002162,3.266,-9.020,-1.535,0.006,0.000,-0.002,-221670
8.204815042,44006383,3.422,-9.020,-1.496,0.006,0.000,-0.002,-222268
8.206983333,44008604,3.422,-9.020,-1.496,0.002,0.004,-0.008,-221554
8.211204,44012825,3.422,-9.020,-1.496,0.004,0.002,-0.004,-222212
8.215476167,44017046,3.422,-9.020,-1.496,-0.002,0.012,-0.004,-221540
8.219669958,44021267,3.422,-9.020,-1.496,-0.004,-0.004,0.010,-222353
8.223903625,44025488,3.422,-9.020,-1.496,-0.008,0.002,-0.016,-222245
8.228106375,44029709,3.422,-9.020,-1.496,0.002,0.006,-0.004,-221779
8.233348667,44034930,3.383,-8.980,-1.535,0.002,0.006,-0.004,-222652
8.236528292,44038151,3.383,-8.980,-1.535,-0.002,0.014,-0.012,-222132
8.242963,44044374,3.383,-8.980,-1.535,0.008,0.008,0.008,-222225
8.246987,44048595,3.383,-8.980,-1.535,0.010,0.002,0.002,-222507
8.2502185,44051816,3.383,-8.980,-1.535,0.006,-0.008,-0.012,-222052
8.25548575,44057038,3.383,-8.980,-1.535,0.004,0.000,-0.016,-222018
8.259685917,44061259,3.383,-8.980,-1.535,-0.002,0.010,0.004,-222066
8.264930292,44066480,3.344,-9.016,-1.496,-0.002,0.010,0.004,-221552
8.268116792,44069701,3.344,-9.016,-1.496,0.000,-0.002,0.002,-221937
8.274827958,44075922,3.344,-9.016,-1.496,0.004,-0.002,-0.008,-221984
8.27863,44080143,3.344,-9.016,-1.496,-0.002,0.006,-0.002,-221612
8.28284675,44084364,3.344,-9.016,-1.496,-0.002,-0.010,-0.004,-221668
8.288157167,44089585,3.344,-9.016,-1.496,0.012,0.004,-0.006,-222410
8.292340625,44093806,3.344,-9.016,-1.496,-0.012,-0.008,-0.010,-222081
8.2964345,44098027,3.305,-8.977,-1.535,-0.012,-0.008,-0.010,-221479
8.29976875,44101248,3.305,-8.977,-1.535,0.016,0.002,-0.002,-221965
8.304950125,44106470,3.305,-8.977,-1.535,0.000,-0.004,0.004,-221234
8.309429083,44110691,3.383,-9.016,-1.496,0.000,-0.004,0.004,-222896
8.311323208,44112912,3.383,-9.016,-1.496,0.016,-0.002,-0.012,-221744
8.315579792,44117133,3.383,-9.016,-1.496,0.008,-0.004,0.010,-221622
8.319849875,44121354,3.383,-9.016,-1.496,0.004,0.004,0.016,-222191
8.323123125,44124575,3.383,-9.016,-1.496,0.004,-0.004,0.002,-222149
8.327374458,44128796,3.383,-9.016,-1.496,-0.010,-0.014,-0.012,-221866
8.331711667,44133017,3.383,-9.016,-1.496,0.000,0.008,0.014,-221677
8.336008292,44137238,3.383,-9.016,-1.535,0.000,0.008,0.014,-222227
8.338157167,44139459,3.383,-9.016,-1.535,0.006,0.004,0.006,-222302
8.343432375,44144682,3.383,-9.016,-1.535,0.004,0.004,-0.010,-222274
8.347355333,44148903,3.383,-9.016,-1.535,-0.002,-0.008,0.002,-221417
8.350598083,44152124,3.383,-9.016,-1.535,0.002,0.006,0.018,-222688
8.355802667,44157345,3.383,-9.016,-1.535,-0.010,-0.002,0.004,-222148
8.360035167,44161566,3.383,-9.016,-1.535,0.000,-0.002,-0.014,-221727
8.363190458,44164787,3.383,-8.980,-1.535,0.000,-0.002,-0.014,-221522
8.368444625,44170008,3.383,-8.980,-1.535,-0.002,0.004,0.000,-221535
8.372687625,44174229,3.383,-8.980,-1.535,0.000,0.004,-0.006,-221838
8.37806575,44179450,3.383,-8.980,-1.535,-0.010,-0.004,0.002,-222030
8.382134667,44183671,3.383,-8.980,-1.535,0.004,0.002,-0.008,-221850
8.386353792,44187892,3.305,-9.016,-1.422,0.004,0.002,-0.008,-222158
8.38960875,44191113,3.305,-9.016,-1.422,-0.002,0.004,-0.010,-221893
8.395805625,44197334,3.305,-9.016,-1.422,0.000,-0.002,0.000,-222045
8.400010292,44201540,3.305,-9.016,-1.422,0.004,0.004,-0.006,-222045
8.4042545,44205760,3.305,-9.016,-1.422,0.002,0.004,0.002,-222042
8.408460542,44209981,3.305,-9.016,-1.422,-0.004,-0.004,0.004,-222513
8.412737958,44214202,3.305,-9.016,-1.422,0.004,-0.014,-0.014,-222329
8.417263167,44218423,3.422,-8.980,-1.574,0.004,-0.014,-0.014,-221538
8.419101417,44220646,3.422,-8.980,-1.574,-0.004,0.006,0.002,-222330
8.424451042,44225867,3.422,-8.980,-1.574,0.002,0.008,-0.006,-222525
8.428678083,44230088,3.422,-8.980,-1.574,0.004,0.012,0.006,-222300
8.433783,44235309,3.422,-8.980,-1.574,0.004,-0.002,-0.016,-222299
8.4380125,44239530,3.422,-8.980,-1.574,-0.008,-0.008,-0.004,-221584
8.443208167,44244751,3.422,-8.980,-1.574,-0.010,0.004,0.008,-222686
8.447413625,44248972,3.344,-9.016,-1.496,-0.010,0.004,0.008,-221913
8.450640875,44252193,3.344,-9.016,-1.496,0.004,0.004,0.010,-222957
8.456914,44258414,3.344,-9.016,-1.496,0.000,0.000,-0.002,-221858
8.461066208,44262635,3.344,-9.016,-1.496,0.004,-0.012,0.002,-221859
8.465463292,44266856,3.344,-9.016,-1.496,-0.004,0.002,0.014,-221601
8.470721333,44272077,3.344,-9.016,-1.496,-0.010,-0.002,0.006,-221520
8.476247083,44276298,3.344,-9.016,-1.496,0.002,0.002,0.006,-222649
8.478965417,44280520,3.305,-9.055,-1.574,0.002,0.002,0.006,-222748
8.482205958,44283740,3.305,-9.055,-1.574,-0.016,-0.004,-0.010,-221824
8.488477833,44289961,3.305,-9.055,-1.574,0.008,0.010,-0.018,-221766
8.492695792,44294182,3.305,-9.055,-1.574,0.025,-0.010,0.014,-222283
8.498411042,44299403,3.305,-9.055,-1.574,0.027,0.098,0.021,-221968
8.503333417,44304624,3.305,-9.055,-1.574,-0.127,0.080,0.049,-221778
8.509794833,44309845,4.531,-8.633,-1.496,-0.127,0.080,0.049,-222324
8.511837042,44313066,4.531,-8.633,-1.496,0.012,0.090,-0.014,-222433
8.517748167,44319287,4.531,-8.633,-1.496,-0.074,0.221,0.447,-221536
8.522022875,44323508,4.531,-8.633,-1.496,0.023,0.162,0.516,-222593
8.526492583,44327729,4.531,-8.633,-1.496,-0.082,0.162,0.219,-222765
8.530655792,44331950,4.531,-8.633,-1.496,0.021,0.082,-0.176,-221688
8.535946542,44337171,4.531,-8.633,-1.496,-0.014,-0.182,-0.424,-221733
8.54010925,44341392,3.648,-8.902,-0.961,-0.014,-0.182,-0.424,-222918
8.543402458,44344598,3.648,-8.902,-0.961,-0.006,-0.004,0.021,-222918
8.548305208,44349818,3.648,-8.902,-0.961,-0.062,0.115,0.359,-222436
8.5535,44355039,3.648,-8.902,-0.961,0.039,-0.039,-0.363,-221803
8.55773225,44359260,3.648,-8.902,-0.961,0.014,-0.062,-0.379,-222211
8.562972458,44364483,3.648,-8.902,-0.961,0.031,0.068,0.025,-221209
8.568174042,44369703,3.648,-8.902,-0.961,-0.031,-0.100,0.131,-222289
8.572390333,44373924,3.152,-8.938,-1.230,-0.031,-0.100,0.131,-222200
8.575702917,44377145,3.152,-8.938,-1.230,-0.002,0.064,0.137,-222348
8.580855375,44382366,3.152,-8.938,-1.230,0.014,0.016,-0.283,-221601
8.58503375,44386587,3.152,-8.938,-1.230,-0.002,-0.008,-0.305,-221756
8.589282792,44390809,3.152,-8.938,-1.230,0.014,-0.016,-0.014,-221775
8.594478583,44396029,3.152,-8.938,-1.230,0.016,-0.066,0.139,-222333
8.598706125,44400250,3.152,-8.938,-1.230,-0.039,0.023,0.121,-220941
8.602901833,44404471,3.191,-8.938,-1.613,-0.039,0.023,0.121,-221187
8.60611975,44407692,3.191,-8.938,-1.613,-0.008,0.041,0.104,-222035
8.611326958,44412913,3.191,-8.938,-1.613,-0.010,0.023,-0.068,-221377
8.616589292,44418134,3.191,-8.938,-1.613,0.002,-0.035,0.049,-222428
8.620795708,44422355,3.191,-8.938,-1.613,0.010,-0.029,-0.002,-221907
8.625007833,44426576,3.191,-8.938,-1.613,0.004,-0.012,-0.055,-221952
8.628297875,44429797,3.191,-8.938,-1.613,-0.004,-0.006,-0.068,-222137
8.632489792,44434018,3.383,-9.016,-1.383,-0.004,-0.006,-0.068,-221986
8.635694417,44437239,3.383,-9.016,-1.383,-0.027,0.010,-0.025,-221882
8.64186775,44442460,3.383,-9.016,-1.383,0.000,0.006,0.004,-222494
8.645188708,44446682,3.383,-9.016,-1.383,0.000,-0.016,0.031,-221795
8.649368042,44450903,3.383,-9.016,-1.383,0.016,-0.010,0.023,-221696
8.654689167,44456126,3.383,-9.016,-1.383,-0.004,0.002,-0.016,-222062
8.658837167,44460346,3.383,-9.016,-1.383,0.010,-0.010,-0.041,-221983
8.663045125,44464567,3.383,-9.016,-1.535,0.010,-0.010,-0.041,-221574
8.6662435,44467788,3.383,-9.016,-1.535,-0.010,0.010,-0.010,-221021
8.67146475,44473009,3.383,-9.016,-1.535,-0.004,0.014,0.041,-221463
8.676692875,44478230,3.383,-9.016,-1.535,0.010,0.000,0.020,-222005
8.68088675,44482451,3.383,-9.016,-1.535,-0.002,0.004,-0.014,-222297
8.685127458,44486672,3.383,-9.016,-1.535,0.004,0.018,-0.010,-222098
8.689432083,44490893,3.383,-9.016,-1.535,0.014,0.023,-0.021,-222132
8.693697417,44495114,3.000,-9.398,-1.383,0.014,0.023,-0.021,-221571
8.695750792,44497335,3.000,-9.398,-1.383,-0.049,0.039,0.027,-222383
8.70101125,44502557,3.000,-9.398,-1.383,0.084,-0.199,-0.113,-221421
8.705282333,44506778,3.000,-9.398,-1.383,0.025,-0.305,-0.270,-221560
8.709453833,44510999,3.000,-9.398,-1.383,-0.045,0.172,0.307,-222199
8.713664167,44515220,3.000,-9.398,-1.383,0.037,0.148,0.502,-221795
8.71882475,44520441,3.000,-9.398,-1.383,0.027,0.076,-0.158,-221305
8.723062333,44524662,3.383,-8.832,-1.652,0.027,0.076,-0.158,-222918
8.726386417,44527883,3.383,-8.832,-1.652,0.076,-0.086,-0.420,-222024
8.73269375,44534104,3.383,-8.832,-1.652,0.008,0.078,0.266,-221401
8.737739833,44539325,3.383,-8.832,-1.652,-0.041,0.088,0.289,-222154
8.742360958,44543546,3.383,-8.832,-1.652,0.000,0.092,-0.078,-222433
8.746164917,44547767,3.383,-8.832,-1.652,-0.012,0.014,-0.277,-223091
8.750484583,44551988,3.383,-8.832,-1.652,0.066,-0.145,-0.258,-221538
8.755613333,44557209,3.535,-9.320,-1.422,0.066,-0.145,-0.258,-221915
8.757999292,44559430,3.535,-9.320,-1.422,-0.023,0.141,0.299,-221960
8.762148125,44563651,3.535,-9.320,-1.422,-0.031,0.061,0.256,-222013
8.766271083,44567872,3.535,-9.320,-1.422,0.016,0.018,-0.240,-221673
8.77047675,44572093,3.535,-9.320,-1.422,0.033,-0.037,-0.377,-222603
8.77612,44577314,3.535,-9.320,-1.422,0.014,-0.072,0.027,-221303
8.779980458,44581535,3.535,-9.320,-1.422,0.012,-0.010,0.166,-221492
8.783147917,44584756,3.191,-8.938,-1.535,0.012,-0.010,0.166,-221741
8.785354125,44586977,3.191,-8.938,-1.535,-0.004,0.020,0.240,-221853
8.789692458,44591198,3.191,-8.938,-1.535,0.002,-0.014,0.049,-222495
8.79398875,44595419,3.191,-8.938,-1.535,0.008,-0.041,-0.121,-222805
8.79812575,44599642,3.191,-8.938,-1.535,0.004,-0.016,-0.129,-221327
8.802298333,44603863,3.191,-8.938,-1.535,-0.018,-0.002,-0.029,-222156
8.807564833,44609084,3.191,-8.938,-1.535,0.004,-0.008,0.064,-221529
8.812200458,44613305,3.344,-8.980,-1.496,0.004,-0.008,0.064,-221722
8.814927583,44616511,3.344,-8.980,-1.496,-0.008,-0.010,-0.035,-221722
8.821296167,44622731,3.344,-8.980,-1.496,-0.020,0.018,-0.029,-221919
8.82539925,44626952,3.344,-8.980,-1.496,-0.014,0.035,0.004,-222088
8.828623792,44630173,3.344,-8.980,-1.496,0.004,0.006,0.018,-221658
8.833000417,44634394,3.344,-8.980,-1.496,-0.012,0.000,0.025,-221193
8.838022292,44639615,3.344,-8.980,-1.496,-0.002,0.010,-0.004,-222194
8.84147225,44642836,3.266,-9.020,-1.535,-0.002,0.010,-0.004,-222311
8.846519167,44648057,3.266,-9.020,-1.535,-0.004,0.012,-0.018,-221476
8.850770417,44652278,3.266,-9.020,-1.535,0.016,0.045,0.014,-221563
8.85489425,44656499,3.266,-9.020,-1.535,-0.064,0.039,0.062,-222341
8.859253,44660720,3.266,-9.020,-1.535,0.059,-0.035,-0.043,-221468
8.863374667,44664941,3.266,-9.020,-1.535,0.014,0.066,0.010,-221945
8.867639,44669162,4.414,-8.938,-1.496,0.014,0.066,0.010,-221822
8.869771208,44671383,4.414,-8.938,-1.496,-0.020,-0.084,-0.051,-222087
8.874409708,44675604,4.414,-8.938,-1.496,0.023,0.135,0.297,-222454
8.878221417,44679825,4.414,-8.938,-1.496,-0.068,0.076,0.221,-222419
8.882502458,44684046,4.414,-8.938,-1.496,0.021,0.031,-0.064,-221364
8.886696333,44688267,4.414,-8.938,-1.496,0.037,-0.160,-0.437,-222289
8.891003208,44692488,4.414,-8.938,-1.496,-0.002,-0.104,-0.283,-222117
8.89614025,44697709,3.648,-8.938,-1.344,-0.002,-0.104,-0.283,-221145
8.899468458,44700930,3.648,-8.938,-1.344,-0.012,0.068,0.312,-221583
8.903585875,44705151,3.648,-8.938,-1.344,0.027,0.035,-0.123,-222483
8.907034583,44708372,3.648,-8.938,-1.344,0.031,-0.010,-0.211,-222216
8.91108025,44712593,3.648,-8.938,-1.344,-0.008,0.076,-0.133,-222442
8.9152785,44716814,3.648,-8.938,-1.344,0.055,0.008,0.033,-221772
8.919431667,44721020,3.648,-8.938,-1.344,-0.041,-0.092,0.018,-221772
8.923645083,44725240,3.457,-9.254,-1.270,-0.041,-0.092,0.018,-222637
8.9269885,44728462,3.457,-9.254,-1.270,0.018,0.139,0.168,-222234
8.932170208,44733683,3.457,-9.254,-1.270,0.008,0.041,-0.088,-222879
8.937322792,44738904,3.457,-9.254,-1.270,0.004,-0.010,-0.344,-221778
8.941628333,44743125,3.457,-9.254,-1.270,0.016,-0.025,-0.057,-221601
8.945784208,44747346,3.457,-9.254,-1.270,-0.012,0.062,0.146,-221631
8.951039875,44752567,3.457,-9.254,-1.270,-0.035,-0.033,0.012,-221748
8.955229333,44756788,3.113,-9.055,-1.344,-0.035,-0.033,0.012,-222060
8.957528792,44759009,3.113,-9.055,-1.344,-0.033,0.066,0.043,-222613
8.961731375,44763230,3.113,-9.055,-1.344,-0.023,-0.027,0.125,-221638
8.967014042,44768451,3.113,-9.055,-1.344,0.000,0.020,-0.051,-222028
8.970061375,44771674,3.113,-9.055,-1.344,0.012,-0.014,-0.053,-221015
8.976127083,44776895,3.113,-9.055,-1.344,0.010,-0.062,-0.031,-222005
8.978885833,44780116,3.113,-9.055,-1.344,0.002,-0.021,-0.043,-222023
8.982722,44784337,3.422,-9.020,-1.496,0.002,-0.021,-0.043,-221506
8.985991125,44787558,3.422,-9.020,-1.496,-0.006,0.002,-0.018,-220787
8.991323667,44792779,3.422,-9.020,-1.496,-0.004,-0.002,-0.055,-221887
8.996572542,44798000,3.422,-9.020,-1.496,0.002,-0.014,-0.008,-222319
9.000846417,44802221,3.422,-9.020,-1.496,0.004,0.000,0.029,-221667
9.00590825,44807442,3.422,-9.020,-1.496,0.012,0.004,0.006,-221366
9.0103765,44811663,3.422,-9.020,-1.496,-0.004,-0.004,-0.018,-222216
9.014423,44815885,3.383,-9.020,-1.574,-0.004,-0.004,-0.018,-222324
9.016558833,44818106,3.383,-9.020,-1.574,0.006,0.002,-0.023,-220853
9.020726833,44822327,3.383,-9.020,-1.574,0.002,0.002,0.021,-222088
9.026076958,44827548,3.383,-9.020,-1.574,0.010,-0.004,0.025,-222165
9.030243917,44831769,3.266,-8.977,-1.461,0.010,-0.004,0.025,-222222
9.032473208,44833990,3.266,-8.977,-1.461,-0.010,0.002,0.014,-221852
9.037666125,44839211,3.266,-8.977,-1.461,0.000,-0.012,0.000,-221128
9.042039083,44843432,3.266,-8.977,-1.461,0.012,0.016,0.018,-221385
9.045062208,44846653,3.266,-8.977,-1.461,0.008,0.016,0.041,-222449
9.049319875,44850874,3.266,-8.977,-1.461,0.002,0.008,0.020,-221695
9.053512875,44855095,3.266,-8.977,-1.461,0.008,-0.010,-0.012,-221827
9.057819833,44859316,3.344,-8.980,-1.496,0.008,-0.010,-0.012,-222121
9.059936375,44861537,3.344,-8.980,-1.496,0.010,-0.008,-0.006,-222881
9.065349833,44866758,3.344,-8.980,-1.496,0.000,-0.002,-0.004,-221639
9.069523833,44870979,3.344,-8.980,-1.496,-0.014,0.006,-0.012,-221782
9.072594917,44874200,3.344,-8.980,-1.496,0.002,0.006,-0.004,-222057
9.077855583,44879421,3.344,-8.980,-1.496,-0.010,-0.012,-0.006,-221474
9.083116333,44884642,3.344,-8.980,-1.496,-0.006,0.002,0.010,-221882
9.088342417,44889863,3.344,-8.980,-1.496,-0.006,0.002,0.010,-222583
9.091593333,44893084,3.344,-8.980,-1.496,-0.002,0.004,0.031,-222382
9.096717375,44898305,3.344,-8.980,-1.496,-0.004,0.008,-0.021,-222155
9.1010045,44902526,3.344,-8.980,-1.496,-0.010,-0.004,-0.023,-221601
9.106171458,44907747,3.344,-8.980,-1.496,0.004,-0.004,-0.002,-222142
9.11093625,44911968,3.344,-8.980,-1.496,-0.010,0.008,-0.002,-221432
9.115572208,44917189,3.344,-8.980,-1.496,0.002,0.016,0.010,-222494
9.11883275,44920410,3.305,-9.020,-1.496,0.002,0.016,0.010,-221213
9.123114625,44924631,3.305,-9.020,-1.496,0.008,0.006,-0.006,-222072
9.127448458,44928852,3.383,-9.016,-1.496,0.008,0.006,-0.006,-223058
9.129551542,44931073,3.383,-9.016,-1.496,0.008,-0.004,-0.010,-221720
9.133815208,44935294,3.383,-9.016,-1.496,-0.002,-0.010,0.006,-221393
9.137957125,44939515,3.383,-9.016,-1.496,0.000,0.004,0.012,-222548
9.141199875,44942736,3.383,-9.016,-1.496,0.002,-0.006,0.008,-222273
9.145335792,44946957,3.383,-9.016,-1.496,0.008,0.010,-0.006,-222229
9.150649,44952178,3.383,-9.016,-1.496,0.012,-0.008,-0.008,-222413
9.155911083,44957399,3.383,-8.980,-1.496,0.012,-0.008,-0.008,-221939
9.15910025,44960620,3.383,-8.980,-1.496,0.012,0.008,-0.010,-222604
9.165369542,44966841,3.383,-8.980,-1.496,-0.010,0.010,-0.008,-221854
9.169516542,44971062,3.383,-8.980,-1.496,-0.008,-0.002,-0.018,-221604
9.174771583,44976283,3.383,-8.980,-1.496,-0.008,0.004,0.004,-222271
9.179212,44980504,3.383,-8.980,-1.496,0.008,-0.006,-0.010,-222393
9.183333375,44984725,3.383,-8.980,-1.496,-0.002,0.006,0.008,-221767
9.187332875,44988946,3.344,-8.980,-1.535,-0.002,0.006,0.008,-222079
9.189564208,44991167,3.344,-8.980,-1.535,-0.010,0.004,0.002,-221834
9.194979167,44996388,3.344,-8.980,-1.535,-0.002,0.002,-0.002,-221974
9.199046333,45000609,3.344,-8.980,-1.535,-0.004,0.002,-0.004,-221540
9.203225125,45004830,3.344,-8.980,-1.535,-0.012,0.004,0.004,-221811
9.207456667,45009051,3.344,-8.980,-1.535,0.006,-0.006,-0.008,-221693
9.212666917,45014272,3.344,-8.980,-1.535,-0.008,-0.004,-0.012,-221691
9.216923708,45018493,3.383,-9.016,-1.496,-0.008,-0.004,-0.012,-221782
9.220097167,45021714,3.383,-9.016,-1.496,-0.008,-0.002,0.018,-221999
9.225222417,45026935,3.383,-9.016,-1.496,-0.002,-0.002,-0.002,-221647
9.229923625,45031156,3.383,-9.016,-1.535,-0.002,-0.002,-0.002,-221438
9.235774042,45037377,3.383,-9.016,-1.535,-0.002,0.004,0.002,-222449
9.240103625,45041598,3.383,-9.016,-1.535,-0.014,-0.002,0.010,-222569
9.244234083,45045819,3.383,-9.016,-1.535,0.004,0.004,-0.008,-221849
9.248473042,45050040,3.383,-9.016,-1.535,-0.008,0.010,0.008,-221833
9.253672208,45055261,3.383,-9.016,-1.535,-0.002,-0.006,0.016,-221593
9.25792925,45059482,3.344,-9.016,-1.496,-0.002,-0.006,0.016,-222507
9.261083708,45062703,3.344,-9.016,-1.496,0.000,0.008,-0.006,-221871
9.266361,45067924,3.344,-9.016,-1.496,0.010,0.004,0.016,-221374
9.271584833,45073145,3.344,-9.016,-1.496,0.008,-0.004,-0.002,-222297
9.27614125,45077366,3.344,-9.016,-1.496,0.004,-0.002,0.012,-222253
9.280003,45081587,3.344,-9.016,-1.496,0.020,0.002,0.008,-222584
9.2832045,45084808,3.344,-9.016,-1.496,0.002,0.012,-0.008,-222593
9.287860083,45089029,3.422,-9.020,-1.535,0.002,0.012,-0.008,-222146
9.290706667,45092250,3.422,-9.020,-1.535,0.006,0.002,-0.018,-222093
9.296968708,45098456,3.422,-9.020,-1.535,-0.002,0.008,-0.008,-222093
9.30115625,45102678,3.422,-9.020,-1.535,-0.010,0.012,-0.008,-221539
9.305349542,45106899,3.422,-9.020,-1.535,0.008,0.010,-0.008,-222229
9.309725042,45111120,3.422,-9.020,-1.535,-0.008,0.000,0.004,-221968
9.313829667,45115341,3.422,-9.020,-1.535,0.002,0.012,0.002,-222212
9.31797925,45119562,3.344,-8.980,-1.535,0.002,0.012,0.002,-221823
9.320268125,45121783,3.344,-8.980,-1.535,-0.002,-0.006,-0.016,-222218
9.324419542,45126004,3.344,-8.980,-1.535,-0.002,-0.006,-0.002,-222092
9.328676833,45130225,3.344,-8.980,-1.535,-0.004,-0.008,0.004,-222549
9.332932625,45134446,3.344,-8.980,-1.535,-0.008,-0.016,0.006,-221975
9.337186333,45138667,3.344,-8.980,-1.535,0.002,-0.008,0.004,-222285
9.342064875,45142888,3.344,-8.980,-1.535,0.008,0.002,-0.004,-223555
9.345679333,45147109,3.422,-9.176,-1.613,0.008,0.002,-0.004,-222379
9.347795833,45149330,3.422,-9.176,-1.613,0.012,-0.023,-0.043,-221840
9.351919542,45153551,3.422,-9.176,-1.613,-0.080,0.031,0.008,-221058
9.356165542,45157772,3.422,-9.176,-1.613,0.031,0.043,0.002,-221802
9.3605305,45161993,3.422,-9.176,-1.613,0.072,-0.172,-0.059,-221715
9.364665208,45166214,3.422,-9.176,-1.613,-0.051,-0.045,-0.045,-221320
9.368913333,45170435,3.422,-9.176,-1.613,-0.025,0.156,0.275,-221462
9.374137167,45175656,2.961,-9.172,-1.918,-0.025,0.156,0.275,-222380
9.377372125,45178877,2.961,-9.172,-1.918,-0.082,0.121,0.184,-222500
9.382590583,45184098,2.961,-9.172,-1.918,0.043,-0.168,-0.477,-222370
9.386767542,45188319,2.961,-9.172,-1.918,0.014,-0.113,-0.270,-221747
9.390995917,45192540,2.961,-9.172,-1.918,-0.025,0.094,0.340,-222376
9.396228792,45197761,2.961,-9.172,-1.918,-0.037,0.145,0.260,-221854
9.401473833,45202982,2.961,-9.172,-1.918,0.014,-0.031,-0.285,-221156
9.4056615,45207203,3.422,-9.059,-1.496,0.014,-0.031,-0.285,-222301
9.40978675,45210424,3.422,-9.059,-1.496,0.016,-0.057,-0.328,-222199
9.415441833,45216645,3.422,-9.059,-1.496,0.002,0.029,0.232,-222022
9.419321125,45220866,3.422,-9.059,-1.496,-0.010,0.018,0.098,-221380
9.423615667,45225087,3.422,-9.059,-1.496,-0.006,0.023,-0.035,-222080
9.428800083,45230308,3.422,-9.059,-1.496,0.014,-0.053,-0.090,-222683
9.433015833,45234529,3.422,-9.059,-1.496,-0.008,-0.043,-0.045,-221935
9.437258542,45238750,3.305,-9.059,-1.613,-0.008,-0.043,-0.045,-222204
9.440534125,45241971,3.305,-9.059,-1.613,-0.010,-0.006,0.113,-222285
9.446694917,45248192,3.305,-9.059,-1.613,0.004,0.002,-0.021,-222087
9.451058167,45252413,3.305,-9.059,-1.613,-0.002,-0.004,-0.076,-222197
9.456386542,45257635,3.305,-9.059,-1.613,-0.008,0.012,-0.053,-222554
9.460706542,45261855,3.305,-9.059,-1.613,0.002,-0.004,-0.002,-222271
9.464776042,45266076,3.305,-9.059,-1.613,-0.004,0.000,0.053,-221803
9.469011583,45270297,3.266,-8.938,-1.613,-0.004,0.000,0.053,-222534
9.471205667,45272518,3.266,-8.938,-1.613,0.020,0.018,0.047,-222156
9.47627525,45277739,3.266,-8.938,-1.613,-0.012,0.002,-0.070,-222329
9.480357458,45281960,3.266,-8.938,-1.613,0.006,0.018,-0.051,-222275
9.48368025,45285181,3.266,-8.938,-1.613,-0.014,0.004,0.023,-222194
9.487957417,45289402,3.266,-8.938,-1.613,-0.004,0.000,0.027,-221753
9.492189292,45293623,3.266,-8.938,-1.613,0.010,0.008,0.018,-221438
9.497407958,45298844,3.344,-9.016,-1.535,0.010,0.008,0.018,-221363
9.500780083,45302065,3.344,-9.016,-1.535,0.004,-0.014,-0.010,-221991
9.506005292,45307286,3.344,-9.016,-1.535,0.004,0.000,-0.006,-221556
9.510297667,45311507,3.344,-9.016,-1.535,-0.008,0.012,0.025,-223039
9.514191958,45315728,3.344,-9.016,-1.535,0.010,-0.002,0.021,-222128
9.519522958,45320949,3.344,-9.016,-1.535,-0.002,-0.004,-0.004,-222110
9.523711667,45325170,3.344,-9.016,-1.535,0.014,-0.014,-0.025,-222358
9.528982708,45330391,3.344,-9.016,-1.461,0.014,-0.014,-0.025,-222049
9.531622833,45332612,3.344,-9.016,-1.461,-0.008,0.004,-0.006,-221376
9.536571958,45337833,3.344,-9.016,-1.461,0.000,-0.004,0.008,-222261
9.540766333,45342054,3.344,-9.016,-1.461,0.016,-0.023,-0.018,-220924
9.546018333,45347275,3.344,-9.016,-1.461,-0.037,0.102,0.045,-221955
9.549971125,45351496,3.344,-9.016,-1.461,0.064,-0.039,-0.066,-222323
9.554443917,45355717,3.344,-9.016,-1.461,0.043,0.010,0.006,-221971
9.559610333,45360938,4.645,-8.867,-1.461,0.043,0.010,0.006,-222186
9.5628875,45364159,4.645,-8.867,-1.461,-0.066,-0.057,-0.057,-222481
9.56807625,45369380,4.645,-8.867,-1.461,-0.100,0.076,0.172,-221615
9.572320292,45373601,2.652,-9.098,-1.879,-0.100,0.076,0.172,-221662
9.575526458,45376822,2.652,-9.098,-1.879,0.006,0.102,-0.170,-222036
9.580477667,45382043,2.652,-9.098,-1.879,0.004,-0.137,-0.312,-222273
9.584707083,45386264,2.652,-9.098,-1.879,0.014,0.078,0.244,-222588
9.587962625,45389485,2.652,-9.098,-1.879,-0.018,0.092,0.350,-222697
9.592176083,45393706,2.652,-9.098,-1.879,-0.037,0.135,0.105,-222364
9.596410167,45397927,2.652,-9.098,-1.879,0.020,-0.020,-0.326,-221831
9.600968833,45402148,3.305,-9.059,-1.535,0.020,-0.020,-0.326,-222269
9.603797208,45405369,3.305,-9.059,-1.535,0.020,-0.039,-0.312,-222009
9.609116167,45410590,3.305,-9.059,-1.535,-0.006,0.121,0.309,-222560
9.6132845,45414811,3.305,-9.059,-1.535,0.020,0.107,0.305,-222509
9.618499875,45420032,3.305,-9.059,-1.535,-0.020,-0.010,-0.066,-221853
9.624289042,45425253,3.305,-9.059,-1.535,-0.008,-0.031,-0.197,-222354
9.627995542,45429474,3.305,-9.059,-1.535,0.008,-0.014,0.027,-221672
9.631249792,45432695,3.496,-8.898,-1.496,0.008,-0.014,0.027,-221159
9.633460042,45434916,3.496,-8.898,-1.496,-0.004,-0.004,0.211,-221930
9.638735167,45440137,3.496,-8.898,-1.496,0.002,-0.014,0.018,-223039
9.644044,45445358,3.496,-8.898,-1.496,0.002,-0.018,-0.047,-222187
9.649045667,45450579,3.457,-8.980,-1.687,0.002,-0.018,-0.047,-221222
9.6512685,45452800,3.457,-8.980,-1.687,-0.014,-0.012,-0.066,-221593
9.656514208,45458021,3.457,-8.980,-1.687,0.002,-0.016,0.043,-221777
9.660728167,45462242,3.457,-8.980,-1.687,-0.002,0.006,0.053,-222287
9.666131958,45467463,3.457,-8.980,-1.687,0.002,-0.010,-0.033,-221700
9.671626125,45471684,3.457,-8.980,-1.687,0.000,0.004,-0.037,-221430
9.676380125,45477905,3.457,-8.980,-1.687,0.004,0.018,-0.008,-222107
9.68054025,45482126,3.344,-8.977,-1.574,0.004,0.018,-0.008,-221180
9.683886417,45485347,3.344,-8.977,-1.574,-0.006,0.006,0.021,-221925
9.689054875,45490568,3.344,-8.977,-1.574,0.008,0.010,0.008,-222597
9.693205458,45494789,3.344,-8.977,-1.574,0.002,0.002,-0.002,-222358
9.697508208,45499010,3.344,-8.977,-1.574,-0.010,0.006,-0.039,-221739
9.701846458,45503231,3.344,-8.977,-1.574,0.021,0.061,0.010,-221837
9.706021208,45507453,3.344,-8.977,-1.574,-0.068,-0.010,0.006,-222366
9.709284208,45510674,3.305,-8.977,-1.496,-0.068,-0.010,0.006,-222601
9.711364,45512895,3.305,-8.977,-1.496,0.072,-0.049,-0.074,-221848
9.716595,45518116,3.305,-8.977,-1.496,0.105,-0.252,0.004,-221680
9.720824875,45522337,3.305,-8.977,-1.496,0.031,-0.320,-0.170,-221882
9.724145042,45525558,3.305,-8.977,-1.496,-0.027,0.004,0.049,-222523
9.729255375,45530779,3.305,-8.977,-1.496,0.039,0.143,0.404,-221579
9.734528375,45536000,3.305,-8.977,-1.496,0.031,-0.020,-0.264,-220978
9.73875175,45540221,3.383,-8.832,-1.687,0.031,-0.020,-0.264,-222667
9.741006375,45542442,3.383,-8.832,-1.687,0.043,-0.219,-0.520,-222448
